ax,ay,az,aigx,aigy,aigz,rralpha,rrbeta,rrgamma,label
0.08428536131969024,0.023943789163945278,0.04086388787333339,0.025100593525108288,0.7461528328230719,0.2914521351484574,0.3067156045941173,0.9297438968230556,0.7605194187422707,2.0
0.005728401142598483,0.006120592913493261,0.00685747522878535,0.005708922158510572,0.006127747117836249,0.006858520858243614,0.049241852077067036,0.046843517410552406,0.053574522197484015,2.0
0.005496149741175378,0.006521886970934071,0.006496430631741594,0.005490222528758299,0.006425567547181181,0.006496771781887441,0.053907874375741835,0.046495284967946235,0.0406123074100529,2.0
0.006240402987585207,0.006183427087819494,0.006763709583976404,0.00619888565458768,0.006144033088459664,0.006763227123161808,0.05446495606285546,0.04019829103482269,0.04313073403086225,2.0
0.00601639986702185,0.00670953178695462,0.007265878309608846,0.006024900982497715,0.006684891799645416,0.007266794623968324,0.03686233145443602,0.03935288018033367,0.041663486405869074,2.0
0.005879800564645293,0.006646693889143375,0.007169112837857973,0.0059453220510359145,0.006670443793903044,0.007169284326366391,0.04794888025058112,0.03833885394212657,0.03947671614807518,2.0
0.006422513598227594,0.005947847905173231,0.0069603166082475845,0.006422891452781992,0.005847496799198674,0.006962349037210065,0.052931676820362025,0.04928231952952328,0.04770436853391011,2.0
0.007209609905820043,0.005769992156693955,0.007441017400070539,0.00721306111148907,0.005733799475530146,0.00744022838719462,0.04869690191661643,0.042116807086739066,0.04835425558582113,2.0
0.005935133498425783,0.005852051629405566,0.007892461821519127,0.005899409155180752,0.005824234829287341,0.007893210933551763,0.04458565668129874,0.03969059199461874,0.04299135810765994,2.0
0.00675989643014578,0.0058394375870804175,0.0072552851591420695,0.0067256604391125185,0.005808732379431804,0.007253996192469177,0.05759082208619141,0.03978019305605828,0.048105706646643716,2.0
0.006125492375669164,0.0065423974594679525,0.008242825478512045,0.006118077525609243,0.006522560044015481,0.008242519239229484,0.04258224362448049,0.04014670371234939,0.046040893557647844,2.0
0.006490376023639449,0.005895882752969361,0.00739427124906206,0.006361523305121629,0.005906070090868087,0.007394422045602048,0.05033646893057751,0.041213436395821104,0.03556207262186859,2.0
0.006629832957829911,0.007012860433534825,0.006996240562332759,0.0065687032061562236,0.007010181503973812,0.006997083585635515,0.054396330182308744,0.04934389986405841,0.04304689918270297,2.0
0.007168816114242956,0.004849131368089645,0.007240331351478413,0.007114891756032929,0.004837344910849933,0.007240539180800089,0.042482802065376954,0.040708182660477314,0.04964063715439824,2.0
0.00529843906478311,0.0053038231778452455,0.007040386027466933,0.005266696565132022,0.005294260869662495,0.007040658227918918,0.05205019832079162,0.040268317830278344,0.04431931001210702,2.0
0.005215147937478246,0.0062653234997903815,0.006605563100115015,0.005220708461462666,0.006223379534134185,0.006607057854194059,0.05244271362874003,0.042304946909589435,0.04433656634562335,2.0
0.006662984985986942,0.0068865473609392045,0.008305571906053022,0.006628492623012626,0.006786411316870057,0.008305917695456374,0.04858492943346942,0.04013812885620913,0.05135548537444129,2.0
0.005644707688744711,0.0059617166645560046,0.006358579076120717,0.0057488879766281874,0.006039285986085376,0.00636022825740226,0.04582655625235402,0.043940152694486555,0.05285246670300652,2.0
0.006728149607051888,0.006520669274524141,0.007398826259856422,0.006780443701192568,0.0065376273518088284,0.007398988390385951,0.04566588456090501,0.047509679635746246,0.04968055670005019,2.0
0.00720246018395494,0.00606833739690758,0.006052490090025003,0.007209731725402126,0.0060819471608513495,0.006052452225197198,0.05007302983638963,0.0487415564802143,0.04359097504100762,2.0
0.0070140444384028605,0.006137655906480314,0.007737781952858316,0.006906701034295817,0.006116919074587433,0.0077374546641406266,0.04277846887380516,0.046244228236613796,0.05592018228997651,2.0
0.006468327867291149,0.007037377124645616,0.00732488290803768,0.006451320142762072,0.007054045527229717,0.007324541743079884,0.043878839858918585,0.04968286018177979,0.04516670180145641,2.0
0.006327910204296199,0.005859596246518947,0.006480582778605253,0.006340555679868372,0.005890437481367662,0.006481126009599147,0.04909670881576018,0.0481597001992555,0.04141171759197603,2.0
0.0065959671735226445,0.006252158244276098,0.006382707342974828,0.006634483403821699,0.006256321610741451,0.006382691915929515,0.05295018521055618,0.03905171819085649,0.05252226858520297,2.0
0.006462636454368241,0.00730504695524057,0.007306353202881004,0.006427608150159528,0.007295149180475324,0.007307526393771006,0.04848527660002878,0.046058856445911595,0.041795531093940276,2.0
0.005691700452631051,0.005281676410892185,0.005685829496837123,0.005720340446300339,0.005252905229077611,0.005685037235618177,0.04582264330855795,0.04011874263410836,0.0455687177952142,2.0
0.0054947369601432774,0.0068565965486567645,0.00662989028100801,0.00547262538580229,0.006858614330598772,0.006630890510975621,0.048758725850105225,0.041271732526020635,0.04133612672015276,2.0
0.005368460394569125,0.006467464880771174,0.006421920261197083,0.005359206938614803,0.006483655704201366,0.006421356253507023,0.052909194953051436,0.04641696960517394,0.04144033710006644,2.0
0.005990938355379163,0.006436242834045139,0.00688290581157074,0.005953743448322841,0.006444876469177959,0.0068829005533819826,0.0584451482241429,0.0399038392848224,0.050987717655417826,2.0
0.005701675186403481,0.006295752906376656,0.007632861077707442,0.00578040554040141,0.006299495283981552,0.007633887797067935,0.04062579455924875,0.043114673764667946,0.04812401928810535,2.0
0.005404298278518941,0.007859693569723237,0.007044741286129936,0.005424553311482186,0.007842803249818077,0.007044692622752413,0.046319963272493,0.041425503511598905,0.0474333693626782,2.0
0.005760094970593622,0.006478248684550944,0.007417433488986541,0.005744630976219165,0.006455056727172999,0.0074176004780233005,0.05284666607385413,0.044619518483230126,0.046267797777286915,2.0
0.006907868872801742,0.004643102362419708,0.006573804141484659,0.006955784634655894,0.004631315514263785,0.006573541084428884,0.04451231909202256,0.04070719026322022,0.0449609334926973,2.0
0.006268564202117073,0.006611508534623616,0.007407462006222904,0.0062763100239267185,0.006604851269879093,0.007407426284288492,0.0472806477354475,0.04033365550705446,0.044570386986918904,2.0
0.006222999551779879,0.005729920401579526,0.006078540947990154,0.006161147477026937,0.005688259853315623,0.006077240417579058,0.04823936571809376,0.03870357050214142,0.05710686068865877,2.0
0.006137164676008589,0.007208584363764745,0.007979638029350715,0.0061335010394963215,0.007245862543549146,0.007979539870827525,0.05211295130845386,0.03846070228971648,0.04788070074578737,2.0
0.005573898883532024,0.005659409989541257,0.00706965992368225,0.0055260992670175925,0.005545985779123688,0.007070661368177812,0.05031355366591399,0.04370293318933726,0.047599107748114974,2.0
0.0063190239939341095,0.005793081995730467,0.006574923587152374,0.006240613556416789,0.005787842780881767,0.006574126361082724,0.05648179472346161,0.043465397423571785,0.053978122870174026,2.0
0.005440508428549834,0.007309188468411036,0.00743373394876282,0.005378552068083995,0.007330165730113083,0.007436282019497578,0.05482320702767332,0.0418082924991869,0.03295446780668389,2.0
0.006587312970359913,0.006679448008050704,0.005359083535069182,0.006596362964529876,0.006675720333361355,0.00536035889220349,0.053964582082223565,0.04561736076395761,0.04103900006485664,2.0
0.0066989499928011694,0.005990779119496048,0.006463536276569321,0.0066536666196981755,0.005971560830978019,0.006463277392751888,0.05279110402492432,0.04060460151861858,0.05321991629296812,2.0
0.007218908331124523,0.006378758264653892,0.007128698861136239,0.007234332910059947,0.006367768881187301,0.007129400215699269,0.04484067979747895,0.04271068777695197,0.04006446847428872,2.0
0.006798471367150519,0.005879779069614986,0.0060488917006235625,0.006772381245017316,0.005893760507002694,0.006053657114566196,0.04687376676555891,0.03712961956807456,0.04354227488569223,2.0
0.006646214758369202,0.0060528433247434175,0.006660624101269982,0.006650796630190051,0.006047476611356079,0.0066611581002697815,0.04871984636496136,0.04755445206968562,0.04658918778051036,2.0
0.006345538425599413,0.006065155752998119,0.007206862458738813,0.006363488595324849,0.006053051020875608,0.007207161474182954,0.05163994053821321,0.0452926873628526,0.042951354140043085,2.0
0.005541472073216843,0.006077927876573981,0.006817991429290461,0.005546671186294217,0.006048360877432008,0.006818511238755191,0.04842156804710419,0.039741326763492985,0.042371795808188804,2.0
0.005391593459624377,0.005750108863831803,0.006562251472117091,0.005369048316563127,0.00577174653771715,0.0065623381298235035,0.04886283893204037,0.049046494734733874,0.042655002395738176,2.0
0.005342526888858003,0.0066938138771389585,0.007352937039374383,0.005326890918228879,0.00657738943709762,0.007353816607780215,0.04705605597327918,0.0504114797621636,0.05140926737033545,2.0
0.005852042740742869,0.0068897770381868865,0.006464491912850582,0.005821395622342596,0.006865101211697802,0.006464227837296994,0.0523770731799624,0.03905480220245888,0.04760902480631761,2.0
0.005649506763365682,0.005738731107939526,0.006590721440104592,0.005620504659317198,0.005788463119646347,0.0065911702497628,0.052934595537268814,0.040614064574821036,0.048290477802424236,2.0
0.006145200128166938,0.007155597464110105,0.007320707503962707,0.006163298410639002,0.007118480365194252,0.007320110434642198,0.04461099666106134,0.04703196780703578,0.03901462950931447,2.0
0.007629998569165182,0.005985676802694232,0.007152259406084834,0.007577215196939333,0.005983952995287742,0.007153198256080717,0.04859110078689079,0.04057614243267623,0.0494842522127002,2.0
0.005678303960048437,0.006332481489312306,0.00778999672417466,0.005656397815546086,0.006197556645181117,0.007788823658080399,0.054399011072542476,0.042819430475452315,0.041501343576026355,2.0
0.006137913964388198,0.0055451624518631235,0.0069460075313028434,0.00605429826477797,0.005552696438307232,0.006945976805226593,0.05115614132107604,0.04197034072447638,0.05177465317260085,2.0
0.006804472473671633,0.006816963238641152,0.005179051566755988,0.006785007148948951,0.00679366919556521,0.00517643132279761,0.04737896312100696,0.0378238672509952,0.04405946387148574,2.0
0.006907823200213076,0.006566472852557241,0.006925828092053884,0.006838969736328573,0.006467475633602448,0.006925521717200894,0.04085334693469599,0.03973126044191025,0.04990498310006318,2.0
0.006508976367612572,0.00590003476577872,0.008157560552916845,0.006504222484748598,0.005917793823189819,0.008158341337695942,0.04609227916124452,0.04443822263702315,0.04732647033229586,2.0
0.005885896332831374,0.005498615390753417,0.007206820529835126,0.005839835101643437,0.005515631048010538,0.007206523777370805,0.053782743947510335,0.0459554669823487,0.040876725165333944,2.0
0.006483725864616314,0.006013692965551816,0.00749373481786268,0.006529209642906256,0.0060465624609651976,0.0074926262756421285,0.050148223753618305,0.03644870843196546,0.04647026564109263,2.0
0.006302611314836362,0.0055417872475786,0.005790551637984477,0.006325725687666822,0.005538333747628351,0.005790555837790875,0.04190346540522454,0.04446209628955021,0.04980290711032993,2.0
0.00444741797295963,0.006112201442832305,0.007235329725552186,0.004594231571437336,0.006161497432455452,0.0072353852204874594,0.05100659622690215,0.04516288528689513,0.048685471625843454,2.0
0.006145740239362217,0.0053110846009003995,0.008043414533127362,0.006111057925845624,0.005231696818459302,0.008041602851404955,0.052585791117285605,0.0412291340823819,0.043336399590088136,2.0
0.005500896684551378,0.0059497482568085175,0.006333136782373307,0.005538255855215971,0.005960224308909903,0.0063330877704959885,0.0475724189426904,0.03524991320870863,0.04413696537441895,2.0
0.006461593974041904,0.005594270291889317,0.007252841724919584,0.006390546871344225,0.005616040624909873,0.0072529931741014434,0.05152607248780637,0.043695620337133,0.053882568865630524,2.0
0.006814636676099563,0.006379922299621151,0.006848310786505618,0.0068038277072550064,0.0063096162858910535,0.006848220705204589,0.04455109946351921,0.043818541495043876,0.04199538951125034,2.0
0.00567965785933066,0.0058393158007749415,0.006759888672114258,0.005665391840053166,0.005769420247246824,0.006759866788025689,0.053325575027256766,0.04467303845379052,0.04581768664675531,2.0
0.0060567114023814305,0.005622636362794907,0.00726579572317407,0.006073690139176308,0.005622700807107723,0.007264279647256595,0.049220020854909986,0.04813505391241715,0.048086000966321193,2.0
0.007049140283495835,0.006578573465195155,0.006297847389190264,0.007045901136989826,0.006565065048232693,0.006299394713306136,0.05625306171513509,0.03904341339976271,0.043851612138554576,2.0
0.006496885489423717,0.006356664462509497,0.007345111808207828,0.006437378873798803,0.006399294187953199,0.007346453785799793,0.06070237317342697,0.04652409887824649,0.04252507734172982,2.0
0.005579232566493304,0.006834203266388313,0.007076484510267248,0.005560206179399283,0.00683777145223161,0.007076505008972096,0.05080381306653251,0.047654862071785,0.04314265182727916,2.0
0.007529016872367186,0.0062823134591949055,0.006729878736780017,0.007484420942160957,0.0062488507865910295,0.0067303021742831075,0.043719057643826706,0.04416047981946419,0.04461837637106496,2.0
0.005578412789702911,0.0062025413809005,0.007535542173131557,0.00557219955033198,0.006185653553348142,0.007536480017636546,0.04943169781181209,0.04405465053385429,0.03842610186178936,2.0
0.006577172533818595,0.005879046185826741,0.006134407809879895,0.006572385309411107,0.005837689381812767,0.006133840513461583,0.05147708232583048,0.04239286413545285,0.04991468774723491,2.0
0.00626409156564691,0.00503338247686417,0.007043443629878652,0.0062644961253116365,0.00499416308865877,0.007044249545343387,0.046991327671619836,0.0400477142590837,0.044117001181144574,2.0
0.006339777223605848,0.005762237128445011,0.007821119281311694,0.006310105320540033,0.005736636782232841,0.00782163761571093,0.04610185851052417,0.04663677249219901,0.04434709333441612,2.0
0.006053002882188542,0.005830673509092412,0.006317250294250452,0.0060275048477412795,0.005818516745575581,0.006316036191215731,0.04204652571418472,0.05761104435635438,0.05347898738909274,2.0
0.0064198076015976055,0.006858469377858267,0.006435675948428873,0.006466112622638801,0.006926182492711293,0.006435069890563109,0.046669424518505115,0.048288202191026725,0.05097149814771098,2.0
0.006064261373616919,0.007605720147234231,0.005534984138225498,0.006039987142595817,0.007621534181942517,0.005534354368372832,0.05169595504526276,0.04774262734221249,0.03882627388412822,2.0
0.005752909102279775,0.006126839300552744,0.006367647707183588,0.005704621720919809,0.006141349690214092,0.00636974759319404,0.05400150937291617,0.04281426586483287,0.04677548215619291,2.0
0.006188663634082484,0.006208008425123466,0.007342719580362775,0.006180683635217811,0.006181889879737714,0.007344580497944537,0.04710571682643754,0.050125739022658766,0.046888619374685726,2.0
0.006340612649464018,0.005243726690610804,0.006940780847485729,0.006445912563547131,0.005273325725055249,0.006942076203116142,0.04829486484486609,0.04646064488005705,0.047906148194414425,2.0
0.006346208028095917,0.00626530735091594,0.007445563256668092,0.006372505290342865,0.006190196796110469,0.007444644285793612,0.05156730597344866,0.042960846103217674,0.045289405352531245,2.0
0.006088052226717988,0.005972888168090386,0.005878570581467172,0.006057612913360482,0.0059893664594984465,0.005878021576588066,0.05129461703793119,0.0521408317011149,0.04741572185013847,2.0
0.006580081633425903,0.006302225656579794,0.006679812492743448,0.006536089998014433,0.006323559211111459,0.006680087531540124,0.0536302870911461,0.038209201474156865,0.05160331282545894,2.0
0.005991345736442676,0.006462722297822744,0.007130086041217061,0.005951351269361449,0.00646742753712125,0.007129037876313674,0.05142138640195157,0.041269295302704616,0.039337657617871495,2.0
0.006237246234276692,0.0055821153024633325,0.006356914996537799,0.006165688533566163,0.005600091277452604,0.0063566115110251205,0.04810329165778658,0.03875833144439557,0.044308996671731375,2.0
0.006319959143477905,0.0063555168957945595,0.007068137015678306,0.006322928623393098,0.006411708377735671,0.007067938083375154,0.0394267801936336,0.04877690186435302,0.04812681955704848,2.0
0.007070421718816756,0.006685842917012131,0.006738455579903292,0.0070437573364630565,0.00665229188330973,0.0067405546619655815,0.049681971948974765,0.050366910481297836,0.04310743399430348,2.0
0.005545815696589371,0.007152986969464005,0.0077334050634511155,0.0056286870104668525,0.007090142403326711,0.00773427901335058,0.052064658548970265,0.038556369483900586,0.04876055942621621,2.0
0.0063837194157376894,0.006047870549514778,0.006959241303591662,0.0063969352668658075,0.006032756091624251,0.0069593409952649855,0.04692169144226519,0.04556778350615408,0.04598096779242503,2.0
0.005194625053928554,0.0058610176995646125,0.007398426132170917,0.005234294335249684,0.005821869617987603,0.007397389438833767,0.05006870480614922,0.045245676113122135,0.048246637840497306,2.0
0.0065785853296821415,0.0061211793303953205,0.007532425217406529,0.006579908788968579,0.006129998413493333,0.007532204739360218,0.05859210632006092,0.04202966680486711,0.041618482975155344,2.0
0.0057556637068361316,0.00682039461677764,0.0070009600704648844,0.00573296211947012,0.006825943157344687,0.007000210539347498,0.04658576694670162,0.0518424902457317,0.05164972965597467,2.0
0.005687136252596243,0.005791695268757624,0.007929707344348651,0.0056679857325294,0.00576713132574883,0.007929143974991613,0.062065255613476276,0.039327076895456635,0.04748869211046364,2.0
0.006321911284619343,0.006528685788333266,0.00730636480785038,0.006320134391710723,0.006537496210386806,0.0073054709612191075,0.050826419063622036,0.03942098960835046,0.052276968430179704,2.0
0.006322812042172616,0.006763332960265274,0.006749179935916526,0.0063065750091649,0.006772888343999999,0.006749658473632274,0.06325554322927762,0.0489891290661309,0.03894051843771856,2.0
0.006520643166713448,0.005874788787231767,0.006532493841394808,0.006534156239140097,0.005811204275014928,0.006532781720697366,0.047428116650553714,0.038052760959582675,0.040895421909475274,2.0
0.006830497693596078,0.006827177296021782,0.006075181769431028,0.006832794874357997,0.006815615497521214,0.006075394015287641,0.042332857775611805,0.04517731098460209,0.04169626667988722,2.0
0.005942270503917694,0.006845984421938794,0.007539826095148771,0.005967887433916461,0.006828086043230242,0.007539230778555664,0.057655765400802944,0.04137593592249351,0.050903986996090306,2.0
0.006805569082894802,0.006767743242823336,0.007256015225874828,0.006811337317845827,0.0067137826892555725,0.007257352076132256,0.052147895560874784,0.04773152791194432,0.04882404166040713,2.0
0.005668317506092614,0.005364533994766258,0.00590080055476145,0.005597784810537193,0.005162712872078129,0.005904912119552365,0.05541169052164781,0.04959656877010655,0.04410650867004491,2.0
0.007234912985906189,0.007238351868695205,0.006429322712454392,0.007117020119325167,0.007175132384333446,0.006430198337100064,0.05150563977149517,0.04346047189745842,0.04975770619392017,2.0
0.006262385056085133,0.005975615140957438,0.007570491939851949,0.006213432249369614,0.005979231449719268,0.007569928474759854,0.056694920091218015,0.041869093213061426,0.04265448112429763,2.0
0.006578316780931667,0.006045318255072292,0.006221021169103199,0.006581471790696552,0.00601985099907034,0.006219231725153556,0.047707215191337006,0.04231027555918879,0.04766255481060839,2.0
0.006321661085378205,0.006062070396385837,0.007475935906573872,0.006241183627489859,0.006047851863406645,0.007474045250540991,0.0417050102782819,0.04319310834854772,0.04806571755551222,2.0
0.006011950066236777,0.007281515181822193,0.009474798265665921,0.006092178660420856,0.007271749080686802,0.009475941407058633,0.04825370013312056,0.03688148482503879,0.051715807232112505,2.0
0.006547609889724559,0.006708867045331591,0.0057302452396450695,0.006503556352161941,0.006698656588516486,0.005729672613663806,0.046576578486346866,0.04358176680243615,0.04258754314660638,2.0
0.005527239644608576,0.005672780312419802,0.006443260005842591,0.005509253226986602,0.005649154710027047,0.006443698166904307,0.046151667523085145,0.04971620661710053,0.043518436515260675,2.0
0.007203569902748014,0.005808516086888566,0.007506734553920931,0.007206921252268568,0.005760503097939525,0.007506490320857545,0.05103841708000829,0.04333802362790474,0.04037917758056309,2.0
0.0054999146510944,0.0070670973576621,0.007305741995175587,0.005516407679729815,0.007054141596453038,0.0073064565124913786,0.05146100111755886,0.042501893645425115,0.04832748092430148,2.0
0.00675780862765477,0.006624843237413581,0.00685777864297292,0.006714861631837791,0.006548467143340617,0.0068576707226751694,0.04583748372593237,0.04723582165945775,0.049381537572481815,2.0
0.005618048473408605,0.006310609873704272,0.0062319345442299725,0.005684332033666187,0.006296791159269659,0.0062322628651721185,0.04801400484368362,0.04355405987842005,0.04352823489333382,2.0
0.00593868857294667,0.006064387745795571,0.0067779126999199186,0.0060151320426968715,0.0060301963910688585,0.006777232955257563,0.0488871821698766,0.039833922571901124,0.04502774269763251,2.0
0.005824726324368243,0.006144397420538335,0.006917189664337256,0.005848520338687111,0.006137009242111387,0.006916182007814859,0.05360637581666703,0.04850081870981982,0.04655965520437329,2.0
0.005609627532531251,0.005831074827435761,0.006696030877232826,0.005643287686715262,0.005792632823273341,0.006696086883342419,0.05046269221515287,0.04557009573827232,0.04886373418719901,2.0
0.0072042687948907355,0.006257928150444034,0.006410207267749339,0.0071772765360778095,0.006220375751668277,0.006411572431784666,0.04957983295993582,0.044709621187733715,0.05061167521755966,2.0
0.0071230323667383355,0.006755819391439052,0.007129909157232964,0.007151117421953728,0.006788486148442531,0.007130181570253988,0.06259323828987257,0.04913376886939676,0.05203989277367005,2.0
0.005368950418282631,0.005921271559776403,0.006765451256700814,0.005326645335868024,0.005936512482660027,0.006764320306926564,0.052735514777240096,0.043407876918496895,0.04741078338074189,2.0
0.005902174565513304,0.005621861581188151,0.007135049175764982,0.005896080807650633,0.005571090109691482,0.007137430408842947,0.050311596389440154,0.03986143373015209,0.04384513165122609,2.0
0.005997337811958739,0.006865480470642431,0.0060114002460494,0.0060788175853095545,0.006787963356843606,0.006012479547633435,0.05014182785312028,0.04349279384201682,0.05075704951984774,2.0
0.005855453836732376,0.006486618850849768,0.006733027935453895,0.005818405648706895,0.006511132924441591,0.006732250263633796,0.0517572951611925,0.040268238271071156,0.038520935929155224,2.0
0.005833615446774481,0.00688768900441812,0.007398556668207663,0.005818195360530955,0.006830137599012626,0.007399236787878106,0.05050475913049326,0.03924648608622814,0.04939467534732547,2.0
0.006025956260239823,0.005688675294513833,0.0070894396935324185,0.006028678658726444,0.005657087343801103,0.007089066110860131,0.04711255088677201,0.03631766878765629,0.04512918258787998,2.0
0.006306238743191273,0.00477693155670823,0.007620425517564153,0.006333570657588227,0.00482832258108736,0.007622262009543639,0.05148146284808856,0.03763001608147975,0.04982372610293278,2.0
0.006543947830072744,0.00611540794580704,0.006917026946038662,0.006494461226648987,0.0060536668892504555,0.006916418790066926,0.05411100641144276,0.046023314885691544,0.04006978964915853,2.0
0.0060150889477907695,0.006177258065098748,0.006466348837233726,0.006026540997165083,0.006055067133655007,0.006466913412719751,0.043407151387784844,0.04388274738984833,0.04054341162212289,2.0
0.006532900404451073,0.006304553494527697,0.006832923084969305,0.006517994275907291,0.006316877639151424,0.006832266467312575,0.05560540391561404,0.045881253436368535,0.04622258257183037,2.0
0.006171131355248048,0.006045018099811715,0.006494330184414686,0.006259700982195023,0.006041200308475295,0.00649503983210464,0.04995297676406632,0.05313041809739699,0.05002372753898257,2.0
0.007198579887075947,0.0059362519194543365,0.007780971626877282,0.007157593278688341,0.0059341623516156045,0.007781804246218943,0.045036480781801745,0.04342274935079419,0.045507569973364914,2.0
0.006455194297242427,0.00673011810643664,0.007554820253973869,0.006429490861569091,0.006751094665257037,0.007555215460195201,0.051850721531084325,0.03734005740499641,0.043930411464393845,2.0
0.007172026578436339,0.006076726372970464,0.006652750574574507,0.007035677032179984,0.006101694117530549,0.006653333013796885,0.05638115445579007,0.03839349511276902,0.049468580659871135,2.0
0.005346015889481492,0.005764602934564985,0.00649565875972337,0.0053337061574659055,0.005763775460887361,0.006495017177663574,0.0539583160882779,0.03919236498755572,0.03706347305980351,2.0
0.006589644975303665,0.006299062654253945,0.007067577491385199,0.006591503304475601,0.006316238178373003,0.00706754999685257,0.05398032182270688,0.03798684181386214,0.04289529328504686,2.0
0.0061091526990061495,0.0062785835352553426,0.006742733833082385,0.006103777791922633,0.006208698221502065,0.006742984664687773,0.05087640469990135,0.038182881851108845,0.049760928645829615,2.0
0.006265046554252556,0.005868298436329847,0.006391964612985567,0.006341851377344219,0.005883470276911134,0.006390956027924577,0.05486754636931481,0.04427020716711338,0.04592598984910074,2.0
0.005961500584161193,0.005255631768072959,0.006730835146432344,0.005979601632077366,0.005252628307229264,0.0067313015380926315,0.04252330375702879,0.043947555802147986,0.04872812589012292,2.0
0.0056012817252468535,0.00630766834044896,0.006951647790346951,0.005586472467434569,0.006221548198257568,0.006952411098329144,0.04779339010674466,0.03942399608132235,0.04662219374299666,2.0
0.006717058665321729,0.005848757175031378,0.007160011012619903,0.006722271378700314,0.005864913970929461,0.007159622158163054,0.05182586288847451,0.05039916729719774,0.052464222667987725,2.0
0.0061972414967611964,0.0053908255659161275,0.006155314487892518,0.006218007528963992,0.005408118170916496,0.006155323364885072,0.04734709067455489,0.04375380259210771,0.050750487087030345,2.0
0.006909297101773896,0.006255377209528157,0.007028794739363417,0.006921094535864946,0.006346496620343071,0.007028187207201541,0.05350745487305538,0.041615380399254234,0.04969099630723943,2.0
0.005848741593372449,0.0064288568436670565,0.00818282138327817,0.005860413744007977,0.00641746367006523,0.008184426660436587,0.043402324553840355,0.0517598617906945,0.048816811407124024,2.0
0.006761716432591769,0.006741072181390562,0.006890018475234534,0.0067139811088469436,0.00671284617512287,0.006890500300643361,0.04995291877440332,0.04216876114058331,0.05381387256088666,2.0
0.005738608859366751,0.006893752192165829,0.00739669294786839,0.005743583536783958,0.006890200998513849,0.007396779302655649,0.04485423035371198,0.046699062449368375,0.050181622885461415,2.0
0.006657946100604849,0.005360377320075861,0.007835126389597684,0.006645088571324972,0.005357925409605104,0.007834950471339825,0.05244189518530467,0.04756776224176306,0.055540657974077534,2.0
0.005708828593768279,0.0050862794847789635,0.007268886515912978,0.0057124327714302035,0.005019525615208678,0.007268887524870712,0.045768431219006124,0.04652374222886077,0.037047933192039785,2.0
0.00680859534406805,0.006013064720888511,0.006797049279385819,0.0068015655151212,0.005879738908089193,0.006796589138383134,0.047522707575939384,0.04664941183432714,0.04104219823107213,2.0
0.00596976008042874,0.0067968318924113555,0.006241763229602856,0.005988519231689172,0.006746463250414327,0.006241175101834525,0.05046707408317438,0.03768098318878645,0.044025540872346156,2.0
0.006396049436229189,0.006033368633233834,0.006031080405331315,0.0063849549568985005,0.006014165899355923,0.006031967667473462,0.05292314552100378,0.0479523338357523,0.045390886327973036,2.0
0.006213602806999689,0.005861568110502815,0.006491417494506826,0.006207008679504574,0.005998700757422559,0.0064932373396714566,0.05034554986298843,0.04671304028848185,0.04203909135181015,2.0
0.005328271685044023,0.006307920483904946,0.008106004189911937,0.005266794353767251,0.006308138144918915,0.00810636005128971,0.04709761958864774,0.04280351430656427,0.041619783127755126,2.0
0.007207182366861082,0.007385672567525232,0.007207814887009513,0.007188633824837102,0.007404234832615844,0.007206724913639097,0.05193588407157385,0.04331908738951728,0.03991967334335067,2.0
0.0065879721661489974,0.006185122886837966,0.007140116299227751,0.006649709218656198,0.006105472595233134,0.0071393982013651805,0.05143071619931565,0.045368142286512286,0.04987183851041732,2.0
0.006480267712520143,0.005574068237808829,0.006358690908119678,0.006452594387974059,0.005567463718279303,0.006357591921328469,0.05889667339867212,0.03991748159451481,0.05105740724274081,2.0
0.006444983097226719,0.0068233131220073965,0.005673825973528968,0.006473496397674691,0.006844314185749572,0.005673342207056288,0.04962972823446055,0.04187116811479235,0.04845364620412489,2.0
0.006338104988549398,0.005842940401182159,0.007229512308348548,0.006346548278613174,0.005826810980702651,0.007229234007553795,0.0564212583533229,0.03788942947349006,0.04193971767581823,2.0
0.005495294006668727,0.006697063423418895,0.006299798657538283,0.005543623424626496,0.006678231406866142,0.006299831356167976,0.04459029041021963,0.045611433300226205,0.04490622774762636,2.0
0.005531258976708811,0.0054082219610592595,0.005849483439602893,0.005583320546586672,0.005393038577432627,0.0058491595757329306,0.05285354638569725,0.048446613404206834,0.053248956210662994,2.0
0.00498393112780708,0.005534043408918236,0.006298012448932371,0.004972555868550266,0.005519959786940084,0.006298117844651392,0.04406655682507577,0.04853379074803103,0.04081589222764491,2.0
0.006076386827803175,0.006633247662895967,0.007128192558209036,0.006072953994195713,0.00663540533545266,0.007128757477905727,0.04381002633145969,0.0425450370360235,0.04306142796961964,2.0
0.0048440578908902085,0.0072039568047881485,0.006457971385994987,0.004792632143044881,0.007084555080501597,0.006457346632609316,0.05194075249572231,0.0435892971823364,0.05348936766738849,2.0
0.006206213947126597,0.005472766087941147,0.007630717930139847,0.006250273707321127,0.005435675478918698,0.0076334676244832235,0.05366347441121206,0.044843964447025826,0.04462503762862954,2.0
0.006428282537798644,0.005911915513506284,0.007446988458527385,0.006427690963047399,0.005928698682471811,0.007447416890805008,0.061986609141621345,0.04963880769026436,0.04483539938987243,2.0
0.006715441678913424,0.0056737511771492105,0.006564322471934602,0.006714004683225979,0.0057217213189424835,0.006563548429721155,0.05688692391147392,0.04148487425448843,0.04289882337178701,2.0
0.006215721012505775,0.004946545779055862,0.007861386839568581,0.006226889803258519,0.004950580085212208,0.00786106086179613,0.04817533494913816,0.04108854218998894,0.044384552877189176,2.0
0.007357950119483029,0.005336159532785748,0.006368367584497473,0.007323731351631278,0.005375153109353876,0.006366278491865,0.049578594497501315,0.04273297256840552,0.03673952229050448,2.0
0.005991145099208073,0.006262081176073083,0.006745608468881512,0.0060621082469537926,0.006245872136964471,0.006744645777882579,0.0404516146861672,0.05225627007021968,0.038724101824344846,2.0
0.005109312416321878,0.006396751367962993,0.006515546353549351,0.005056288457186696,0.00638036455563373,0.0065155710529362105,0.054771941881624354,0.042949818072611536,0.04676662652012907,2.0
0.005529422580561177,0.006319837398007483,0.006758260798329937,0.00553774301331272,0.006295403940394763,0.006757830040043647,0.05052306012392434,0.04194248742504727,0.04451471957345505,2.0
0.005481823087430242,0.006291573434911054,0.00725292285990021,0.005449157615362526,0.006292201026331009,0.0072517030897405995,0.04927611866569174,0.04280557408585414,0.04919681555552451,2.0
0.006026385228851728,0.006234458809655916,0.007298773925424604,0.006050146769358393,0.006197488861712632,0.007298180124948827,0.04972806348518044,0.0387430845481148,0.03830206905817644,2.0
0.005740274367873395,0.005468628487520532,0.0061308471140838865,0.0057269389240522045,0.0054508846282803666,0.006131194848860855,0.051083463183640467,0.0476499552842153,0.044343761948777725,2.0
0.006030742320715482,0.005949116338190842,0.005998379217572101,0.005992575596709482,0.005916484550047263,0.005997063604254371,0.0459036657908232,0.046064857664457226,0.04949783136180258,2.0
0.006042178203621376,0.0058354429172166435,0.008504636335097028,0.006053972261106864,0.005841841933382421,0.008503135813683543,0.050956873658641565,0.04504327075309882,0.044688731508820766,2.0
0.006654923567083315,0.00589783624935459,0.006793968981215568,0.0066488321231666665,0.005936565250606875,0.006797405566993964,0.059711878346354864,0.03821611420563165,0.04787332543662292,2.0
0.006320039680391631,0.006456730058643379,0.007798335373405893,0.006348255057720693,0.006469825618694061,0.007798371944431458,0.05224925882745347,0.04417118458960162,0.046162430614954765,2.0
0.0064093083490736925,0.006363360098192237,0.0067472695546173045,0.006415254381571493,0.006331303834018686,0.006746886691827574,0.04546402787474578,0.0464512621035652,0.045093016093995825,2.0
0.006013930094775268,0.006056792464943386,0.006990912358633255,0.0060725991354382185,0.006047858300423266,0.006989514678386754,0.050519699051923196,0.0470223253308409,0.042472297638215,2.0
0.005971071021551239,0.004710950436460986,0.006690516567945283,0.005997863172177319,0.004688785100090783,0.006691967806955634,0.04887935990395836,0.04824034258611454,0.04380140143060928,2.0
0.0075016765715746276,0.006866638271314684,0.007167306475085363,0.007502815058235042,0.006859023113573644,0.007165775233492489,0.05174251961894386,0.039097604736267944,0.048230208064621825,2.0
0.006441743714083196,0.006784176623448544,0.0062281700916829545,0.006486587667772205,0.0067699447859086905,0.006230254875939526,0.0523341059072654,0.045606651798614076,0.04598651392125659,2.0
0.0056827310199550505,0.006208655727528034,0.006915011560069543,0.005685863402451077,0.006205660633884145,0.0069155917853620545,0.05355714502190508,0.03898330381469416,0.043952680971926034,2.0
0.006300220612546635,0.005273329370361012,0.007447093417062404,0.0062989209820276575,0.005296640493906248,0.007447562811786576,0.05848354218843684,0.043120387504413334,0.04091100917237798,2.0
0.005850980741373301,0.005850262213249028,0.006107450892210752,0.005832883547406094,0.005841118927087984,0.006106109611074045,0.04984163029015569,0.04494176424974973,0.04207759226079761,2.0
0.005837750687325341,0.005654031055795844,0.007632029032919713,0.005858324198572077,0.005576809627124218,0.007631358004765779,0.050517814679086205,0.04236963045335418,0.04601473293481836,2.0
0.00581824996181205,0.005456108400482467,0.00604987472392153,0.005866913415062934,0.005489931994495305,0.006050638977180848,0.05337032766367383,0.04279953517632709,0.03546752922299529,2.0
0.007554015961635402,0.006856897698347575,0.007932511540421969,0.007597961445081917,0.006839263761772056,0.007931944880588916,0.04684342384967779,0.04207681856286681,0.04071538454314858,2.0
0.007089079778507322,0.0069287682140448375,0.006149465427721691,0.0070540070444043285,0.006887041641238333,0.006148795016567122,0.050418108329232644,0.039465173452764464,0.04797007368682218,2.0
0.006533262870546212,0.005968112123713764,0.00682510078790372,0.006530661302270532,0.006021878951012333,0.006825228731538236,0.050053834028218454,0.04362550603705954,0.05234012921986409,2.0
0.006169474046068599,0.006757767391306594,0.006285622581779236,0.006147261574372565,0.006755927746413824,0.006289108714387339,0.05063730024294049,0.04816330260152428,0.0450905886996114,2.0
0.006025054558508072,0.005938313587520211,0.0074731989569939055,0.00606774424283147,0.00591829509533929,0.007473301019200708,0.04655849985404519,0.041993928337658734,0.039022829797875073,2.0
0.005429631050960173,0.0061401184162615035,0.007102748989572613,0.0054395673822626054,0.006185378479846867,0.0071038325875358195,0.05449476219673505,0.04429096950422852,0.04424713070086219,2.0
0.005325124276941623,0.006904494019393095,0.007464115128201377,0.005375709572839369,0.006744726566047857,0.007465072024553288,0.04329793498030331,0.047282681920848224,0.04889465277527341,2.0
0.005814391102874863,0.006574805801954486,0.006450988521534633,0.00573649594659859,0.006571791468095848,0.0064514136349158105,0.04567815992391497,0.04399090641886643,0.04064647007937412,2.0
0.006850010777509937,0.006266749295188402,0.007409222702540459,0.006836563845872872,0.006222679971622985,0.0074077364562116195,0.04777472316387731,0.04505950525795873,0.0452916920469937,2.0
0.005318804363787327,0.006049133050468906,0.006119985274937965,0.005305559861095418,0.006010917902084069,0.0061201722826347985,0.045249923771204265,0.04298422465634667,0.047425238417469824,2.0
0.0059291284264009515,0.005748895988780364,0.006807524743656508,0.00585809638202208,0.005781871663846707,0.006806405570592134,0.046023413035734095,0.036879358314028644,0.04379562510143116,2.0
0.005922983403337584,0.006132190067994163,0.0061502957747952055,0.0059898978260458455,0.006123318321869333,0.006151066106040244,0.056222926888024695,0.036871325962100215,0.05321664852109287,2.0
0.006474620628908934,0.0064087483722307164,0.005549877500566341,0.006312308146506118,0.00631480579347139,0.005550971829811264,0.0502259557038648,0.04366747392529291,0.04622301481047041,2.0
0.005582946371564213,0.006293962962711187,0.007219159036033624,0.005534979647937947,0.006329766103184276,0.0072170285665687835,0.04867125436099958,0.040167753511524164,0.047087086717020235,2.0
0.005930324714594947,0.007233886426899184,0.0070049007108559476,0.005937495336770661,0.007102820386452565,0.007008519843639078,0.04578323981221497,0.03764245209663671,0.05422682979128629,2.0
0.006109873984634372,0.005629948380293168,0.007244507301177946,0.006123906986182449,0.005645346256040515,0.007246080469665869,0.056236924414899754,0.04472637434236915,0.05208895042429689,2.0
0.005310736556693937,0.006635235212331264,0.00635746114713577,0.005220766174764259,0.006592217982731185,0.006356761692271798,0.04852012766136144,0.05148112512891599,0.05448742609796558,2.0
0.00590006348271172,0.0058257714498526495,0.006635490999179551,0.005966487074182665,0.005782307800694163,0.006636073210924724,0.049542490797210216,0.043087782509472164,0.04377822022961124,2.0
0.09953641545969012,0.05130136981454698,0.13016589975468515,0.1764012071476946,0.05880998277161034,0.13499257309362475,2.121748523350303,3.0303460663427257,1.5165445722739317,0.0
0.06381131099544579,0.03856835081409039,0.10477661626024026,0.1164007864114009,0.037003528325849425,0.12489556132781478,1.7624490526486698,1.506544966716233,1.6603247166700001,0.0
0.08016791445003439,0.04056486330393095,0.12267744644833863,0.08835102809430016,0.0393626596691244,0.126588202172205,1.7423656516666222,1.5559008182881362,1.51966297733487,0.0
0.06501586145853774,0.03129596865833489,0.09610490299673059,0.06813890133385396,0.03110506023377418,0.10147850589927977,1.5536469835077928,1.6745948517623457,0.715942083785521,0.0
0.06945572808032768,0.03778421027616978,0.09665402629866143,0.07359649524951589,0.03766391099146994,0.10008124136987173,1.326410453241946,1.1306204532576807,0.9165147086546398,0.0
0.0588619562436764,0.03242010474621586,0.08988349804563221,0.06007034676847526,0.03245667687608338,0.09348692579942926,1.1800685530137136,1.2422571354668395,0.6704950237168181,0.0
0.04677014070167139,0.029031235663740638,0.08674551414187566,0.04742412896344024,0.02908446456381744,0.09015913794307956,1.1390674987673906,1.2971890645612418,0.5480936323287751,0.0
0.05399438266540126,0.028927484482085524,0.08062907977735799,0.05677961471086127,0.030111398708350272,0.08372487443154245,1.0730855094184037,1.0166920715144276,0.569731182506776,0.0
0.04622762772753328,0.022441061357063485,0.07983029054344383,0.04750979451247067,0.02455011963956973,0.08573807752724659,1.0178048265251498,1.0363164099446442,0.42819744896140005,0.0
0.05318747366685775,0.02794135505718102,0.07818905851916759,0.056393036995061,0.029203038419343196,0.08549046676806517,1.0179768926349446,1.126019065911598,0.5812365218395007,0.0
0.06467600204338304,0.028540212007765273,0.10000728895088652,0.06554612924677372,0.02889157640112858,0.10466192377348933,1.3820612761710869,1.4470872422019743,0.703119049481326,0.0
0.04982171226513098,0.026961005347030748,0.07581738398323398,0.050670105786648004,0.026591596548284635,0.07797194437749935,1.065499423862457,0.9174651865453809,0.5309229675646221,0.0
0.04710006564537591,0.02368367729168832,0.07759018165795015,0.04808039413243292,0.023586451482356566,0.07992879185400721,1.0768440423985746,0.9876037020580811,0.5290827242439327,0.0
0.04404697924842557,0.02204438593968628,0.08324084314533126,0.04458057367000055,0.022716559550148226,0.08668763827578205,1.0969412055341123,1.0431571141789318,0.5194440515655996,0.0
0.04258908915232159,0.021366764789007807,0.060916197224217206,0.04388846532360171,0.02209672793338774,0.06366190334681317,0.7439499733033205,0.7819265424676819,0.47437973971714936,0.0
0.06030139527587423,0.030008332609879076,0.08951430982017508,0.061662207879095064,0.03047313848899775,0.09322686282062057,1.1229819655164834,1.2541464477684194,0.6409865263952418,0.0
0.04530706302943599,0.021345939699922635,0.08124953485557797,0.04730097593623256,0.022277263876928362,0.0873402670170803,1.027880626654719,0.916356658858312,0.48041638237586826,0.0
0.0454695230043364,0.025669586053935312,0.06340729147838767,0.04565985046864618,0.025184023208208346,0.06638111290813828,0.9063344130611409,1.0337700866728219,0.5367191166245977,0.0
0.04764024881964358,0.02395973635702233,0.08650173981567365,0.04810963163328275,0.02350311562339495,0.08890674343930688,1.1275977074584018,1.1547890794082927,0.5172981489116022,0.0
0.04331661401739276,0.02330410363672941,0.0593317994193906,0.04465225950825749,0.023564767771818658,0.06142659559338547,0.6999122416395069,0.7555242314329118,0.4286014070238714,0.0
0.03919994269243362,0.020417426932460944,0.057782671588354345,0.040643704211493305,0.020844652180357814,0.06062126275258367,0.6117040769836619,0.7236335458596632,0.38906240988985274,0.0
0.03941860345065709,0.025173501546662248,0.06854305645448804,0.04000344688494372,0.026529775494036668,0.07539994952406562,0.8618978862322968,0.757322025820368,0.4602361877812228,0.0
0.03274521034938726,0.020175625619725246,0.047953864732820685,0.03351818034017087,0.020057954965499045,0.049199589081681046,0.6293168609289908,0.7708132841953745,0.35937480374518066,0.0
0.04368020244656555,0.024180973567256764,0.06481377699997799,0.044508865451372226,0.024011043910047308,0.06689169493256489,0.8454457304970514,0.8219405223007034,0.49012350749654476,0.0
0.04456314924567992,0.01787235343898483,0.05823616391261344,0.04581304592338903,0.017876211689703797,0.0595977927801614,0.8565000654605052,0.8565113130287427,0.5065299864192764,0.0
0.045754345847339346,0.028273061873856767,0.0668712089995845,0.04636858587176214,0.0288170375172565,0.07081200526040292,0.9002625069638641,0.8815881598590415,0.5437865371418916,0.0
0.04144864771111797,0.024442956139366215,0.08143991580823562,0.04202405933570616,0.024899501151465907,0.08490203556855967,0.8872439106247481,0.7411902471069898,0.4470889007674066,0.0
0.04760728453436689,0.025383697178097436,0.0918081076752952,0.04841885010092761,0.02576106606438866,0.0938801276714982,1.112471273118097,1.068056939807096,0.5211982639250888,0.0
0.05315925150730022,0.021733287467248362,0.0849258209452228,0.05408570792378015,0.022005246230190966,0.0873392505572507,1.0165571170703216,1.1272258131406696,0.49647713236544616,0.0
0.03979956776537709,0.01990331327624004,0.05356153969066578,0.04082309078958102,0.02005090870936663,0.05477824413357444,0.6245890617105108,0.5311411738515608,0.45923200206359993,0.0
0.03691881466150541,0.016965775614906038,0.054270015968689155,0.03803831699633009,0.017153613078098887,0.055459358473052965,0.6333605975000371,0.6850157784355269,0.39201123774693236,0.0
0.03013463386101232,0.019491534121222218,0.05445968115094291,0.031367679797467636,0.019977460065249492,0.056383778740055145,0.608270316626436,0.594271854111376,0.35230360552040996,0.0
0.04819777005153152,0.024291107475042328,0.07121931545751155,0.04946800723673347,0.024391500151767033,0.07322547608333696,0.8133736693154563,0.8075902903186546,0.5034867021106677,0.0
0.0430231613407554,0.021837050729981232,0.0591840964662252,0.04417956581567159,0.02190129139735921,0.061140338962894177,0.6929137800853936,0.7000667079064953,0.45081870862859674,0.0
0.044544480574798,0.021828533026264352,0.05507499312819386,0.04585864657854915,0.022280786768471148,0.056715548497643986,0.7950814298272655,0.8513286928841723,0.4936239132868945,0.0
0.044858538771966654,0.022376313360020543,0.06671247957517432,0.04591187729316911,0.02225689430446636,0.06850033195615587,0.7997035771392023,0.885866127226103,0.4368905598826028,0.0
0.04138100607630211,0.016966209202965935,0.06089508179451627,0.04399879363283228,0.01699768950126525,0.06346052693471661,0.747740108236469,0.8414901435556889,0.4656236682074661,0.0
0.04653379487158017,0.02246343670060775,0.06506408070695728,0.04768231608808746,0.022267243280244983,0.06702563806066808,0.9331168670669424,0.888962783677476,0.5422661104803967,0.0
0.03802039856173668,0.019428286862850076,0.044700697216501196,0.04014161370364677,0.01970917831993407,0.04593593814794811,0.5761737665583755,0.6873861802320524,0.41586522149020283,0.0
0.03764895048555741,0.01733776730666615,0.05913116644872622,0.03800021582120227,0.017219234317462664,0.06100292774120189,0.7880543904471348,0.8339724407900784,0.4226711011333182,0.0
0.05075505789413001,0.019652347002998612,0.06807791274801313,0.05162112248748346,0.019573230807298614,0.07058814489109892,0.924617622409468,0.9795968378042229,0.5431096000058768,0.0
0.04894585849544154,0.02386915420966316,0.08615420848660268,0.05006404020186827,0.023691710855801254,0.08798361132988121,1.105084584705216,1.02539636340466,0.5594433265734804,0.0
0.04933542490353937,0.02605374369662902,0.0673865031392522,0.04961177707626703,0.025651755124160104,0.06872801036659935,0.8870965356071622,0.9286494766816463,0.492263689372239,0.0
0.035006606549921514,0.018680817589684047,0.05189123929940926,0.03655586776149392,0.01866726497453646,0.05285957162061657,0.6484514748389877,0.5384978938776841,0.40591588829076464,0.0
0.03786816553749807,0.017576558656418516,0.05871427553370766,0.03858545260294484,0.017611067300111694,0.06034662121522345,0.7966106508411367,0.7389980835028459,0.4347055339754656,0.0
0.041862659184559614,0.02166467448589515,0.05669579155551194,0.04253005460929963,0.021420616109867563,0.0580883834701478,0.6630807652109185,0.5429117163452475,0.40560267066651323,0.0
0.029442117169090495,0.01953401962103916,0.04137274173352624,0.030555483598650318,0.019846702103269616,0.042405531955499245,0.5014168303764011,0.5884351085280787,0.3287765459972576,0.0
0.0434489938796622,0.022963908719912843,0.053112876809975396,0.04419611139500214,0.02275908643252861,0.05425872153584802,0.7771121073293243,0.87745606404315,0.44498965126050116,0.0
0.03555211071695308,0.017089421980950516,0.04175366996137287,0.03650915263673478,0.01705740957312797,0.04314531033813221,0.47637001353337116,0.5394272993700472,0.3359128697910041,0.0
0.038165989054595305,0.015167589187679669,0.05489783623038404,0.039446714279351806,0.01535215369804159,0.05656566673762469,0.642998453818227,0.47738808158087503,0.391580519486112,0.0
0.0370448202274184,0.017241046182900316,0.055572317103514554,0.03848602562179196,0.01747954024434323,0.05701249012339586,0.7178408513213572,0.5767515997374982,0.3900130407920765,0.0
0.04954863626958465,0.024377119179000505,0.05284003531605368,0.050381531913600966,0.024369830869687303,0.05392374534934085,0.6622362541712616,0.7558629882421466,0.49767600471314544,0.0
0.03414969861348942,0.016469097650404104,0.03857585590183744,0.03510489980788377,0.016488066571767025,0.039466434579435494,0.45063536201973353,0.5867112537046559,0.34184672252846987,0.0
0.035796831878897824,0.0169734338859189,0.0407811121296445,0.03663682288914854,0.016893766699737318,0.0421565533024451,0.5521759648160569,0.6309147125577373,0.3873200396277278,0.0
0.03386662814985735,0.021006527258677084,0.03802559002742307,0.03558670328776041,0.021063585992623302,0.03877105501905689,0.5104635933706052,0.5717502308653047,0.41186849768013856,0.0
0.02355983017389708,0.015283371265233003,0.05836593537710961,0.02515710057103444,0.015465532792232,0.06107105976672876,0.5908704614441485,0.43871765247687045,0.26244991281669644,0.0
0.03821963882321888,0.022170581661752838,0.061874566304810134,0.03929490978916632,0.022327176351534892,0.06368209705923483,0.7067141343781728,0.6681266569428644,0.4616423145365162,0.0
0.037939075958090825,0.020634225482837606,0.05839263283210232,0.04008029364226788,0.021038284824966995,0.05982211427762305,0.6967903135611844,0.7027273047431432,0.4493759092272899,0.0
0.0374197212704335,0.018812571977090266,0.06424979666335354,0.038732943275597904,0.019102817889354574,0.06602786941059281,0.670794392102696,0.5295399049566828,0.3783252321315846,0.0
0.03906139709262189,0.02229018265459487,0.05469282150518747,0.04030455709822023,0.022508291773503487,0.05628349499526338,0.6548943475519898,0.5375035324826767,0.463902374151663,0.0
0.04059223441811202,0.02051899355024435,0.05443639849676831,0.04139739898465075,0.02078273488037476,0.056053817817212095,0.6065692407481043,0.6820340087957355,0.383549035474603,0.0
0.03271685375187801,0.016922553312191408,0.0518476597475695,0.034415900302947174,0.01774720417478543,0.05336224922858069,0.6256553013227878,0.6931816547043023,0.38709160784144653,0.0
0.04159254441071678,0.02122065747052898,0.06458758952278974,0.04220929545963322,0.021258349458175486,0.06702975052095807,0.7652577936243791,0.7802873541201968,0.4408861153147143,0.0
0.031584649393156215,0.017915020538374276,0.047396498128848275,0.03252690260029795,0.017994843851651066,0.048915435485750045,0.6028724574342977,0.6442471607396945,0.3578831037909424,0.0
0.040882801455323844,0.018703795471953243,0.06214494652897455,0.04141040656567003,0.018744253641814403,0.06397575915050639,0.7384343238961812,0.7975898855674641,0.38667852877140885,0.0
0.04281488627678122,0.023414404562561077,0.05784065106344028,0.045368627420340375,0.023996750537210867,0.059094015899082024,0.7057831280903789,0.7154791542821703,0.46402271833986675,0.0
0.026226353441534914,0.01802734467968035,0.044175334032170784,0.027102503304711215,0.018399714859575624,0.04511036174879612,0.4552287956216009,0.49360519858969815,0.28524236182679813,0.0
0.030443760867753286,0.01818228524068809,0.03979327450994568,0.03174148310443393,0.0190961737510622,0.04191502936955325,0.5797364882052906,0.4769147998371432,0.3633720180626747,0.0
0.03936439298872638,0.019584290279197492,0.058999227630482765,0.04114103459184577,0.019640753299060124,0.06054271710288581,0.6916378867110122,0.7229416301874122,0.39867137792673885,0.0
0.034282054872572985,0.016320639289499478,0.05106782001868725,0.03644841590400166,0.016942253528287914,0.05230228295585124,0.5938158491639305,0.5896523715661727,0.3977794370198239,0.0
0.039161164916305356,0.02680323166831212,0.0621885531574903,0.0399016990840272,0.026475504131508388,0.062607078753201,0.6318442123756877,0.4756604904642292,0.39639871794161946,0.0
0.03762678814540224,0.020201359279185607,0.050247862628709984,0.03844875185052769,0.02042139665586039,0.051809096069415445,0.7248904635873379,0.7780051317097851,0.4077652604089569,0.0
0.03842741148590932,0.01902077956469928,0.04393114058091034,0.0393102463194935,0.01882018484045395,0.04483463979062388,0.581608133969372,0.6960625979916556,0.3733211884640763,0.0
0.04300975811247878,0.01720983964407853,0.06008369003635166,0.0439312078510581,0.01688581367416516,0.0620420156985579,0.8159449656141242,0.7134051686766535,0.47302447780041296,0.0
0.053818594103154066,0.023781049508466323,0.07606971272737705,0.05532652564265923,0.02434367259384956,0.07835652029779547,0.9009165951776987,0.8462814446340863,0.5559756796152134,0.0
0.03866266817414258,0.02100863882291296,0.04938022563388801,0.039933798126304515,0.021149390987080463,0.050423576054402106,0.5717372870460363,0.5371952048263942,0.4198377596662437,0.0
0.03096065023761654,0.02188269721191908,0.052891427618836875,0.03163664182227125,0.022337262746011038,0.05455241581254449,0.5167602384255545,0.5495088101572045,0.28806831779673175,0.0
0.03215535033221374,0.016247444802605402,0.053307015544449714,0.03245376571400675,0.01687522502156546,0.05508901909363702,0.6495851683071248,0.6406922881579461,0.36426473943740023,0.0
0.04206300409702066,0.017929643996103358,0.06517261271114237,0.04248265553344105,0.01777048492397168,0.06694625398545163,0.8296811707702849,0.7462690510479677,0.44627036703136713,0.0
0.03391129326789326,0.01583162452933632,0.05693094809005142,0.03498532333631657,0.016082778035035435,0.058166163755529514,0.6163334606256592,0.565312370131609,0.3667714975836937,0.0
0.04660385470057203,0.01908411061779,0.05601729833134847,0.04733271280909499,0.019048190097960785,0.05724101971157028,0.7078101658883993,0.7655707974707398,0.4245958911167072,0.0
0.04106400868016298,0.017752886809471777,0.05139319921532865,0.04183123238011785,0.017811384660267885,0.05308934294418086,0.6577610324543668,0.6344418308979645,0.391786378381685,0.0
0.039916478358524805,0.02001270683706572,0.05916087178490488,0.04061470938629848,0.019940019457260944,0.060434262964968566,0.6991882566838983,0.7731262412525474,0.43326368810164756,0.0
0.0405668519119861,0.018979091792364858,0.0638201636091097,0.04144843763960851,0.018944673282688645,0.0655614057055433,0.6854994056483035,0.5291095732801047,0.4349444785216058,0.0
0.03446478907998909,0.01655016773945829,0.04930467042943384,0.03480638581589761,0.01664182559812023,0.05043108074990741,0.5285634790455535,0.5528070067294388,0.340453254016037,0.0
0.03132930941350306,0.016840693929857938,0.04381878505523848,0.03220079331484173,0.01699112581209816,0.044808616407599415,0.5454442381056056,0.5415641095123658,0.3185818544208117,0.0
0.045836504078545566,0.021404964515474363,0.05650105436211083,0.04729583573246984,0.021765758034972375,0.05785479635491961,0.7255932257267552,0.7436278076254241,0.4849761661066558,0.0
0.03051733751114602,0.016832390211456723,0.0405900831138093,0.03179440786472751,0.017201110827105227,0.041405934908649085,0.45299659316101365,0.47264822632557385,0.294173801604275,0.0
0.03315051576454926,0.01741271210285355,0.047332326258244344,0.034099775268281916,0.017440365310345856,0.04829626875234982,0.568935746257139,0.5646895782264052,0.3661048074249156,0.0
0.03350138959283284,0.018690782121126792,0.0438182150742542,0.034746239394652434,0.018788285788475634,0.04485197383501676,0.5081012102512585,0.4843533356750089,0.34325719614961425,0.0
0.03826956959399905,0.018733208897375276,0.05224110622665599,0.039622880719778486,0.019220023655076756,0.053934898010048415,0.5720382582245043,0.6702780732493772,0.3900730036528608,0.0
0.03697067964201851,0.016979606131847923,0.04647277828237675,0.038099842452658905,0.016796120476377536,0.04753307672912889,0.5987778262982645,0.5876056898192706,0.3579639480534458,0.0
0.043867522619282555,0.023704427779052555,0.04347234444235296,0.0453084879621125,0.024010681567788905,0.044945612500655624,0.5248833089265222,0.6587601579348173,0.4074158262950384,0.0
0.040592883436450296,0.015526362800716795,0.06273365484476306,0.04143764840773382,0.01564549313662965,0.06405414337578913,0.6516406153640825,0.5963506325943101,0.37789628434008504,0.0
0.03827711120775465,0.01952135743736221,0.06725838486537615,0.039720145701272185,0.02132788866747636,0.07030837011022745,0.7054970688822658,0.8185931095008672,0.3831943298345287,0.0
0.035045395695718476,0.01638889482146996,0.050399173151838374,0.035523567033834,0.016432221030393997,0.052034399183724066,0.5737572118259063,0.6459317840247121,0.32860011896661334,0.0
0.03722378237375951,0.023219613334602186,0.045495943876632305,0.038054101586308925,0.02348697128455886,0.04656395937921366,0.5684228318633807,0.6585343041329385,0.382434232737592,0.0
0.02771782354131249,0.015100746892416793,0.03457622263524604,0.02847447474528686,0.015487065814064326,0.0353603735656205,0.34311886995318874,0.49792433428817384,0.28418669707960287,0.0
0.033195329780887385,0.015485953197299986,0.04753247732991673,0.03408591499658304,0.015582404365769296,0.04913066462572875,0.5998784956661852,0.5490181691881061,0.33852347413214473,0.0
0.03235231215443074,0.018403682235706806,0.0474829461189116,0.03334985815090989,0.018664207528405738,0.04912472173812703,0.53435281102039,0.5088774677602137,0.34124701690051534,0.0
0.030276391614617724,0.017851903534721367,0.05317059660260694,0.031223188079777853,0.017723326955211505,0.05461089736134746,0.5281116763657862,0.516223696071952,0.3057220675594146,0.0
0.03773127143269274,0.019407067769687775,0.05873552230388255,0.039215607852880474,0.019905455764976394,0.06006435637573306,0.6176669518254111,0.48892680724972215,0.41178564304253784,0.0
0.039932921397855196,0.020852771888076497,0.06459866384144672,0.04070659641354872,0.0206393669946479,0.06610823746389523,0.8244060197063061,0.6394667685155544,0.5106403892864542,0.0
0.02946135815879283,0.01728884166616007,0.05781722524371851,0.030789638257384226,0.017233397927066452,0.059439369524998384,0.6168103732502156,0.5377737972529966,0.3525824328605498,0.0
0.035910794358426666,0.017769407524833872,0.06315253761181339,0.036564308501205685,0.017846339893178197,0.06475602257455053,0.6562505073515457,0.6213516332981703,0.3645898902746448,0.0
0.039545724879386145,0.016036967706426965,0.05785938748411261,0.04149295558566756,0.016156617830738525,0.05968782232053807,0.6639165503043944,0.6090291063587308,0.4032843084636555,0.0
0.046640283722690995,0.02212342275672892,0.0708756577793885,0.047341487050952376,0.02214929270819957,0.07295177505827255,0.8859488286353489,0.7709147186753824,0.5325194152188224,0.0
0.039646924603140656,0.021158543379834065,0.06234417550044588,0.04030081281889841,0.021355671301303485,0.06409834052237565,0.6825888029471786,0.5758859051458972,0.43072330256053665,0.0
0.04038199487889554,0.023514871455625155,0.06677130960710889,0.041627170296977795,0.023910200652546013,0.06906290349819141,0.6746687499924615,0.6075201381259617,0.3964546861576499,0.0
0.03564089208560476,0.01892687356203797,0.08467976279238966,0.036315694580068614,0.019117588148466504,0.08748420035276358,0.8722406600243479,0.7081621019029628,0.39250337286955117,0.0
0.03273091223959269,0.01921966427847722,0.06725699711023703,0.033555962661933184,0.021223580390755187,0.07093342768616177,0.7291072475419099,0.5293646114362193,0.36709197252734715,0.0
0.03187087277026348,0.013959371983270139,0.0496281215044247,0.03243762033369681,0.014025452155393674,0.050902521201644596,0.5687839803741757,0.6410232759585919,0.3815718647349345,0.0
0.047791056403272615,0.020136574149468078,0.09879690928552808,0.048989504546304005,0.02025292486285303,0.10201312883130406,1.0031216577336104,0.7069331813208949,0.516502454190684,0.0
0.03538761826848653,0.013890047279278547,0.06444021870225461,0.03633610095579904,0.013851865067014487,0.06595200549880388,0.7438454575394167,0.6967167760341294,0.4130962964681539,0.0
0.034435134506931094,0.013126913561097306,0.06133694389732322,0.034915072983687206,0.012969472174461554,0.06262242667630054,0.7424878934625722,0.6205039262237404,0.4253018188462351,0.0
0.03127208461978327,0.019688663526854198,0.04798554430768274,0.032209069113521775,0.01974695064024467,0.04907477100180784,0.5725368808725908,0.5590629537818204,0.3726304782462106,0.0
0.04014854538775431,0.029347402031066807,0.06705456385431761,0.041179650364931264,0.031262861141781804,0.07107366260453382,0.8105494720435014,0.6022863536816667,0.42029062347892127,0.0
0.04167870659240253,0.020240652855210355,0.05098021157096175,0.043062211930544596,0.019988404791565748,0.05227001742237502,0.7026661023191434,0.7386770142075038,0.48651631484219177,0.0
0.03516415633625964,0.020143540732351955,0.050704036660256926,0.03627010594679652,0.02038052232657259,0.05188260622606645,0.5447511059648614,0.6132829750203802,0.40445264817262844,0.0
0.027380615093244985,0.018732401661132346,0.05375534767751337,0.028545783920218348,0.019675288331226125,0.05553863827080634,0.6024639918058395,0.6442059118295521,0.31726417766337633,0.0
0.041804870913831275,0.02051226330469496,0.06451680716592466,0.04243404676797987,0.020621776473104387,0.06602727004878486,0.7396653171398073,0.6640952312317661,0.4785480136685413,0.0
0.03377047047288522,0.013832440642342689,0.05246252623268031,0.034699161039802744,0.0141249744046238,0.05370218064874935,0.5813394638893424,0.6660600652609042,0.31583255663865784,0.0
0.03591040322131003,0.01357012288095592,0.050554792907333286,0.03705503058634062,0.013958697909713201,0.05206663706896609,0.5769476601800327,0.6025993276194719,0.3731717535885745,0.0
0.0320678314226694,0.01876738655678516,0.05091367320177643,0.032812117361579345,0.018738111545635656,0.051821694532958804,0.5507348790984122,0.47206045294319754,0.40867401542731197,0.0
0.042763532343319345,0.022773476222775164,0.07713799273248982,0.04376077189658545,0.02341651524909644,0.07941421862480581,0.8314377206738393,0.6520446878185066,0.4910302851591328,0.0
0.03795467834364486,0.020421746675814235,0.05246786193351928,0.039373665844624345,0.020624951019771437,0.05381592063870523,0.6019012631801884,0.5364921970404497,0.4632556466516967,0.0
0.034483637638954276,0.018295296163478556,0.043157289108083724,0.03521794196612652,0.018227574745427532,0.04421088260077168,0.5218049181460955,0.539156229110821,0.3218783381664445,0.0
0.03454734982767323,0.0202139156194341,0.04216401524250972,0.036284584000505105,0.020376201338925728,0.043840367297674626,0.4094331619706396,0.5362272638622101,0.30597745891045114,0.0
0.032401302161375746,0.018879442140861305,0.050990251513908756,0.03332903743951633,0.01963735484374542,0.053725960262963224,0.532510644671802,0.5478199032966742,0.321502536694015,0.0
0.03577602730178639,0.018549541028149014,0.06437429834062527,0.03665306789425459,0.018676131716998588,0.06707385457096289,0.650948531811156,0.627067555751239,0.3882384867135737,0.0
0.033614543346802306,0.020046696941881447,0.03862746074906748,0.03432284218983032,0.02000998741386628,0.04003697467244175,0.41646962441459306,0.4533337482976539,0.3780998046040499,0.0
0.02906362773393105,0.014582806121329908,0.05510989340672583,0.030246516149242352,0.01478780088704334,0.05709335098477928,0.5350777490364235,0.5375897867849141,0.3189784677154813,0.0
0.047059920124924944,0.02400756794438058,0.06863214404902439,0.04816092894541639,0.024246977705566646,0.07002730849533904,0.7611238870655911,0.6955642478085615,0.4862464488509463,0.0
0.03558560188474226,0.015727977856649297,0.052509902144475123,0.03717469854973931,0.016381614365995324,0.053979674592494385,0.5055444697222509,0.5226216321378239,0.3372287314834072,0.0
0.040360983528775325,0.01563754723288855,0.06996322798358166,0.040661501188700905,0.015365492152970542,0.07137893865518034,0.755975420601383,0.684936568319473,0.43161003735365994,0.0
0.03200757246433599,0.016529866393620828,0.051015954389449586,0.03283121915280416,0.016702289908764083,0.0523493941749484,0.519257865487546,0.43420290153094065,0.33709571295557006,0.0
0.04616529098944345,0.027458080837485768,0.06105083962830103,0.04725037491764666,0.02780847539243182,0.06209875230885438,0.7416257649935226,0.6518986578868282,0.5138554494163599,0.0
0.033927017023026675,0.01802124343378493,0.04637735333990092,0.0350868951406477,0.018445493298191583,0.04758183519647838,0.46210391877521745,0.6346980251886306,0.3072024535890411,0.0
0.036954117347848356,0.01944091315137612,0.04700692483131623,0.03880755684434115,0.019664051746287176,0.04821736410493742,0.4425768571157229,0.5341082917876061,0.3715081003453415,0.0
0.03641186797074473,0.020472100128148058,0.0597539498820636,0.037219812109913895,0.020528960177258734,0.06187081036847421,0.5974863446196811,0.5946408651052547,0.4330213184301015,0.0
0.040561222349070926,0.020772132750527108,0.07057918408759123,0.04106352794180367,0.021236840407805678,0.07282677124285045,0.7615810625048982,0.7161728382976759,0.44606161702953784,0.0
0.03816490791432936,0.01964594508123533,0.05962509440129577,0.04000219487741288,0.019654729613565625,0.06132108890976263,0.6906823118017505,0.6772229327895386,0.4267733382223884,0.0
0.03272572688348561,0.020365547823886714,0.04731243915978766,0.03354726444801115,0.02082404301023096,0.04829455200400119,0.528059425704907,0.5303438131057249,0.3184347248695462,0.0
0.03086779679262218,0.016373780690989596,0.045381757489399294,0.032275545719904014,0.016400070907580354,0.04695077325779555,0.4898123849382295,0.46876176109980305,0.37263114383347073,0.0
0.03969703175561883,0.020855766334742235,0.05675634410173591,0.040475627916164825,0.02078079737223202,0.05857189876463441,0.6967862440742755,0.6382488244314913,0.49784997046160695,0.0
0.03564994296101427,0.021076845782840643,0.05562960955951017,0.036348358071151735,0.02124875577079644,0.056829164547611416,0.5717192455046274,0.5744528559437357,0.3707435003638749,0.0
0.032330134884710336,0.016479558676066215,0.060399111107718846,0.03388009675458043,0.016863717030478214,0.06195156419313551,0.6182166263640624,0.5381206902597997,0.3291244529511814,0.0
0.03418441439554964,0.017477491242180652,0.06680462919897727,0.03625995170924583,0.017745011137151996,0.06896678928659283,0.6704916462200233,0.5550908930081727,0.3813867031140922,0.0
0.04526448238852786,0.019691983785879896,0.06903045822921496,0.046147669178694124,0.019557741084860757,0.07100912771829487,0.7741125107372971,0.7194587405376303,0.46221147773424004,0.0
0.03700848528773699,0.017545152070217746,0.04822186700758028,0.038999918487842004,0.017990667673564185,0.04958848567127024,0.48967996724179824,0.5193900232451859,0.3697814454678233,0.0
0.03996078555738119,0.015851665490825423,0.06278883955498346,0.0409856295676987,0.01578956099574766,0.06477730635882194,0.6943740433899666,0.6389166349658008,0.4275684339687772,0.0
0.041142023692855155,0.024203967477160995,0.05210819732549888,0.04202550568991566,0.02428424483350703,0.05345957520262259,0.605742172434126,0.7527059089465638,0.4411158207925876,0.0
0.04603542919741442,0.023552416882836866,0.05321030751647195,0.04721396876020149,0.023834460486336653,0.05440150643195878,0.6232272130760411,0.7090411625852081,0.45936773797384256,0.0
0.045505473843710335,0.021091481328399646,0.06620475084808329,0.04683191795030786,0.02132760116323928,0.06790765185093858,0.6624796194603354,0.6102010029211651,0.47329902609408936,0.0
0.03522514554248825,0.021264347852684752,0.05663520405862727,0.035774080176387106,0.021368003566854102,0.057803900290379885,0.6346489072106277,0.7667270733248884,0.37234878987960385,0.0
0.042369437586678924,0.019357736498741025,0.06073091614569826,0.04367131643840251,0.01920169426686069,0.062258618924497224,0.73696690180492,0.790216885056479,0.42423220172208564,0.0
0.033502843103788246,0.017966678103472588,0.04883635362817987,0.03407534436051828,0.01801052846528783,0.0503564715067153,0.5980242844697568,0.6161567779959263,0.3625196609347965,0.0
0.03794696053796099,0.020234266466789365,0.051487723782210615,0.039054592944159076,0.020056502473820674,0.052855754268250565,0.6454095739670446,0.6674349227644761,0.42234029973422443,0.0
0.03520754533233467,0.017394450396896317,0.05054957568847544,0.03645214040797683,0.017634315025613943,0.051561219677417405,0.5433751919997261,0.6624542549669061,0.3296557529116705,0.0
0.04078698868442122,0.022811743509858172,0.05962520892456856,0.041324802513222424,0.023102801995511357,0.06086974908791733,0.581508321113699,0.6518633966595266,0.3586399934542292,0.0
0.040235397537405536,0.017174425533578334,0.05252128908154074,0.04104483892863909,0.01729307190083922,0.05368670572886969,0.6025776466128824,0.6615880698995157,0.42174869868475057,0.0
0.03952296854097685,0.019363194831823898,0.05499804976069828,0.040681715071577466,0.019757326372119778,0.05624853097648594,0.5964176840987744,0.6025787671454312,0.41726860112430125,0.0
0.03851540022773164,0.020217101815832448,0.054175561925374476,0.03909182505282392,0.020131470654091547,0.0552323179448303,0.648573651067396,0.6430591825273915,0.4205041079396067,0.0
0.039667356718527044,0.02066727787059245,0.060354152675110045,0.04151067889938272,0.02094125595652581,0.06253334150283908,0.6438862763238453,0.5699379019617784,0.41604031912322,0.0
0.04063232612172079,0.021503915335736784,0.05170704089381444,0.04177593919156632,0.022680598127758453,0.05493007177048895,0.5385276914986011,0.6404904321777052,0.41209922430832846,0.0
0.03430039317161801,0.023345958112665946,0.06801775816468168,0.03526118400657026,0.024507344980796552,0.07114095470573958,0.8155292718846197,0.4776140018406422,0.4158573442289886,0.0
0.04141780773976478,0.02056440153663642,0.05757251074518513,0.0428137717498152,0.020892685682858993,0.05914861761321548,0.6658419713898523,0.6102020939632965,0.4438557878839712,0.0
0.03859959715063082,0.018608565456068434,0.05042115240829207,0.03990579645964776,0.018608326470943383,0.05252111736966808,0.5920622995106865,0.5272256494904256,0.4283794290261222,0.0
0.04273965340246955,0.02213720284590172,0.06434362031760966,0.043981995583148435,0.022320219511145743,0.06612712012059362,0.7108802719865469,0.6017269365285508,0.4732834565929436,0.0
0.038480377045581216,0.01987985593542145,0.050167203934412506,0.03970547983178027,0.020103338463475177,0.051463140656692635,0.565995430604752,0.5958483903571367,0.34422470847933495,0.0
0.03639761837709733,0.01836096954874741,0.04959227750898561,0.03744810499444346,0.01864003467657054,0.05112328004829237,0.5954319685783854,0.6424366134984247,0.3879759924273205,0.0
0.03323534269485357,0.018488344685124856,0.05826566956810574,0.03381258532551472,0.01863028781073571,0.06011170670957326,0.6156504810799358,0.4776585090575647,0.3913400266344814,0.0
0.026154597637599454,0.01605107394889438,0.043612104139544,0.027524067158207627,0.016460780076484317,0.0447384553802787,0.44140223065346496,0.4035122660366657,0.2911726927284824,0.0
0.029645675962461936,0.01647474001597722,0.04259514827992279,0.030044975283389765,0.016900267413535706,0.04349663523224738,0.43737594237507044,0.4165393767718766,0.31547980511311585,0.0
0.03393711537260122,0.019012655310210486,0.043111481600048886,0.035186232979822804,0.019382440984545567,0.044346693543351315,0.450710797781484,0.4252674231674596,0.3615309104813315,0.0
0.034155219123384734,0.019757736199587705,0.05414070849996365,0.03543768930401293,0.019758238943059992,0.055571577266917194,0.5284084160661632,0.509215504520944,0.34127644990694517,0.0
0.029684648163050095,0.019688680368878404,0.05512275032594921,0.030134790839985277,0.01988353290568615,0.05682232016363527,0.5749847931069323,0.6190222329134856,0.3276951553766424,0.0
0.0390377649997847,0.02229079265547957,0.05727643388632499,0.04077541621947973,0.02275116770258586,0.05857153745110798,0.5434329082109468,0.5342577935244763,0.4148613903081918,0.0
0.03666839428768184,0.02315409179565899,0.05408331943533248,0.03708065889071139,0.023834434897173695,0.055973344058929474,0.5533671299282079,0.5679082940583158,0.3775154014245156,0.0
0.03337426299635034,0.020761298773873667,0.05404815741216724,0.034099388163526756,0.0212081442710138,0.05540379694670632,0.5256815828707406,0.6266013962359056,0.3207259794518703,0.0
0.032857232680828075,0.02081127310071034,0.05403451512977265,0.03417986852070887,0.021471211914400573,0.05565594351183559,0.540830723905207,0.37563407982089436,0.3312226137921871,0.0
0.042204051686435456,0.021729857919377656,0.06971303038579535,0.04290316153837759,0.023003448926226137,0.0729542428925981,0.7204349788843605,0.9173915104410025,0.4073904630404381,0.0
0.03190162467038173,0.015907141210589195,0.043481482151437836,0.0323896233798657,0.016196450871212815,0.044828259798687695,0.46144544385553216,0.5441895854495552,0.3002423382262325,0.0
0.030980552722195857,0.018890475650037455,0.041806556099450685,0.031136871037934406,0.01909377045643214,0.04255493288924259,0.3846248744911901,0.5330340456998899,0.2778786718551481,0.0
0.03505209496288392,0.01886744469671939,0.03679398255487531,0.036405339220092085,0.019322774710723717,0.03752829225833177,0.42106214125155467,0.4756554819126174,0.351573785745874,0.0
0.030709314689298745,0.01737493680938489,0.052503427308624936,0.031602824709838155,0.017535062437658195,0.0543285762308307,0.5036654043702157,0.5089473543959894,0.3136152214655014,0.0
0.030828908612571836,0.01806357791194243,0.045194773645764214,0.03199478246177921,0.018541163413366108,0.04669061826673805,0.4845201517416498,0.4770032975511629,0.3198025325897477,0.0
0.037071395547766686,0.01856675789315196,0.044390050152098834,0.03852503225432925,0.019043582923105845,0.045687723112686415,0.4691301871158747,0.49252515817934883,0.3760392163566051,0.0
0.03652835532043512,0.020152730820796806,0.04316235170641276,0.0382453810416213,0.020611576169812015,0.04415780873294287,0.4516706760202558,0.5144332407501336,0.374907134133101,0.0
0.03229881564028156,0.016742421671855703,0.05545246117292157,0.033871079787682744,0.017065192265923335,0.05711825499492227,0.5904696840131645,0.4405582183550292,0.35773550894971584,0.0
0.022106211635373615,0.013400616628194773,0.034429200358241076,0.022796080332233952,0.013757735350912547,0.03534725110951927,0.39257623958805105,0.3962137337748039,0.2392549408583666,0.0
0.03223896978145679,0.018319597460947697,0.04619918905168297,0.03307997837271926,0.018603729597395192,0.04720994185870506,0.5212685955785493,0.5189306163456688,0.3185600252175358,0.0
0.04288546216777306,0.021041105281708893,0.05155541898414249,0.044618433279381475,0.021313462677680632,0.05262183625649295,0.5350835953182447,0.5727661057887058,0.4807740494456851,0.0
0.03907437518354338,0.02335547168062688,0.03687579962493866,0.040963523550843255,0.023968840105624993,0.03797264361176824,0.4126651735587848,0.4303183555952923,0.38596891479597656,0.0
0.03514821234770918,0.019036507851791448,0.04983931871149352,0.03742157805379138,0.019563641147097955,0.05147432479623356,0.5252258425499269,0.4487698470286546,0.4024969834257473,0.0
0.035949028182400235,0.01891978144059463,0.05318515100339356,0.037579801008905296,0.019174914135116596,0.054842241752964656,0.5031364613760136,0.5168587088669746,0.3649434977871583,0.0
0.03760901674419417,0.018509515893442453,0.04867308924691,0.03851981975757257,0.018427902527375067,0.05002365341577439,0.514492362566663,0.4593476273605501,0.35668236132706715,0.0
0.031698979137825094,0.01615056913469263,0.0486589706401448,0.03246437817055683,0.01642110578352437,0.05020638706226657,0.499520507759344,0.43054935573054043,0.34699414506892456,0.0
0.02531648112818363,0.014650658322239139,0.05224610524819822,0.026504201774016255,0.014748627656402648,0.054091897726551735,0.4642479860708179,0.42139593969751576,0.2407981792310523,0.0
0.03337105129603359,0.01946008480801194,0.04561086042353323,0.03441926379116868,0.019814069883825048,0.04681432801646911,0.45082321724019736,0.5076210955121584,0.32697983400078046,0.0
0.030919724472507227,0.014771140136636067,0.047388314888102634,0.03191117236057524,0.014738115745077341,0.048746430735262844,0.5064647621920024,0.5071915425643612,0.3190762689536707,0.0
0.035471568162307274,0.015920447023686182,0.04806646672196333,0.036816536924955914,0.015836298237688576,0.04943529816453933,0.5469251137946759,0.47755220860422404,0.35503994420838947,0.0
0.03189243393280028,0.016065134237180926,0.03844761477412377,0.0329483866212018,0.016572450458959047,0.040787131510082494,0.4130672868368901,0.42503579266921626,0.2935363646212044,0.0
0.0401968464636265,0.017497878061106018,0.054509555699278386,0.04147248825903124,0.01694162993054959,0.05604293943618594,0.5462411061710389,0.5004504303337908,0.37348393545215136,0.0
0.18392039080679592,0.11900856725932892,0.14767007037936547,0.32332137898941915,0.34474770444798664,0.17914078263046393,1.6759191983664388,3.1433569329482167,6.555874504458508,4.0
0.177220238269074,0.1180760834302436,0.15510740029103187,0.2197687840301973,0.1327762270247369,0.17907903688003568,2.4228641341998105,2.7400556284230753,2.7399609367858266,4.0
0.09528893354775624,0.04491258764358703,0.10065819737593913,0.1540424789252538,0.04537185186134378,0.10142538638630762,1.0365285412534782,1.915815107837017,1.1900775124949974,4.0
0.0672693378629726,0.03137943814075759,0.08556255573283278,0.08471206803452656,0.03549459396294484,0.09398180030275065,1.0089711222679294,1.0642768342641995,0.9513202852571483,4.0
0.048017504736985725,0.026209440331084206,0.06393587221134044,0.06028632356220839,0.02855182045584106,0.06674178237183057,0.6420942994342901,0.7231822774211921,0.6289335660696744,4.0
0.052127187982675786,0.029512423690888634,0.08860568138320055,0.05471785427550575,0.0300158044339496,0.08965314751069177,0.7415874354661934,0.8189736015171977,0.6050811332517341,4.0
0.0761573078501915,0.058983573439356105,0.1413885677053831,0.07954160906720151,0.05706094040505072,0.14702808183967292,1.3602126493757647,1.63600710623133,1.2326751513239311,4.0
0.07883595093019094,0.05337229323353422,0.15799467815741441,0.11701335735494796,0.06729468054761015,0.18608349793644063,1.5292370156076154,1.8960436238049854,1.1067127880667724,4.0
0.07838591493385136,0.04142497997936767,0.1183438583448122,0.08839903695009634,0.04097068460317915,0.12090247197847007,0.9757895479831071,1.2012823906201027,1.314373718990544,4.0
0.07203116421045015,0.04272822945899295,0.16521105006454484,0.07599786261032213,0.04790862986218353,0.17419588496647506,1.4564922164910885,1.5113968724860891,1.188833935621545,4.0
0.060757249327942735,0.03918134277171754,0.1010140718282097,0.09335892457688803,0.04000191041786598,0.1056239435706122,1.0445469258021658,1.1138987395057365,0.9361807912866369,4.0
0.0414291494337811,0.03134680834770911,0.09899974027010565,0.04518464155037346,0.031805813208064374,0.10155599532385973,0.9134734752730018,1.2493441389084667,0.6034633343110724,4.0
0.05571783290982887,0.0418192402973063,0.08950168395364518,0.05761852004255141,0.039919823557815745,0.09418532995859745,0.9785504044108785,0.9632760285797638,0.6378252566192811,4.0
0.04401526254807489,0.02869506625145148,0.0931527080443941,0.05166250176555151,0.03366339205457239,0.10112506519975706,0.8783034188873502,0.6921293328684394,0.54800688381449,4.0
0.05281618695827639,0.03615404491015069,0.07930188822991335,0.05568502580088499,0.0376292771184898,0.08337218729357657,0.7496222628999293,0.7538956817705132,0.6307190603038265,4.0
0.04861754283891271,0.03164319211937735,0.07933171606699935,0.05304033901575077,0.032635650526294024,0.08198637887650359,0.9115415192194181,1.0898157815972442,0.5796253642093788,4.0
0.04324557797853954,0.030479069898270802,0.09243294734592726,0.04551891579877552,0.03090441715711772,0.09379925680656095,0.7803922996262288,0.8247331837794886,0.5103875369324744,4.0
0.038842727893268994,0.026220000198955862,0.06460685036615624,0.03935748278018115,0.026312890186238187,0.06539272181995806,0.5954719544935616,0.5673299107230421,0.3873431994074909,4.0
0.04667722575594161,0.029974606294189386,0.11077648021508918,0.05676102608039387,0.04998602564993206,0.12893280232139231,1.265750244352467,1.051831907640628,0.6712805085859814,4.0
0.060571358777625435,0.051491242584039976,0.10715854757183042,0.07931206879393887,0.0493156252991228,0.11163578628575696,1.1312790781066466,1.0715615928958093,0.654118731349227,4.0
0.04831130532545461,0.03631533847757647,0.0981967608798217,0.05262162938795462,0.03656456223649295,0.1002034619157769,0.8644890446558651,1.1926587399313129,0.8121803878726742,4.0
0.04155994453031829,0.03604284395283154,0.07947170496185663,0.04332362258271584,0.036157245451435276,0.08337466914043729,0.8725496471688181,0.6028144469305607,0.5023560660242858,4.0
0.042274867811240326,0.024914648066374265,0.0719690902060254,0.04399788708115163,0.024984846957449413,0.07297885902028178,0.5574016904427406,0.6725221179136778,0.4846486784039396,4.0
0.056500655442048665,0.02663619033136256,0.09386177686009621,0.05834081003972642,0.027048468394548778,0.09560181891107726,0.6892272879165471,0.6460215368805711,0.5249000896896745,4.0
0.04074465534313045,0.028580708227579424,0.08287147643475323,0.04320956217746226,0.028658424086198214,0.08454993311572065,0.6554160194567139,0.7789502509519302,0.451383788728955,4.0
0.05061065491664767,0.031978474900536104,0.07048290596352537,0.0525705460509988,0.033251799498381834,0.07230730970017722,0.6231344894834865,0.6775682817227785,0.5749968469896796,4.0
0.03826471201817035,0.02284281495019762,0.06574005514027782,0.04018664543564021,0.022224994917130706,0.06692730048187959,0.49456292494444776,0.6025228431921072,0.37277527187398185,4.0
0.04606255909938334,0.03321934458436985,0.11423052842077425,0.04916626356635064,0.03311410630682542,0.11690653142407081,1.0419031638042848,0.8123037543898189,0.5843777271903268,4.0
0.06190909560323239,0.03787180920768409,0.10901807234998116,0.06476794070658372,0.040981172199880525,0.11246093330473488,0.9568174954792656,1.0770060452555508,0.6564375052241003,4.0
0.05835223467337036,0.036605659268781086,0.10902396190888392,0.0613996321624003,0.0397772314862285,0.11212852985100301,1.2117293297113838,1.1387343331136968,0.6281640875224636,4.0
0.04701884220848975,0.03803482320839946,0.09805568413695845,0.050751231650731074,0.034003586357705624,0.10218626570071443,0.8419730650664038,0.8101212994707456,0.5266796756186524,4.0
0.03832619984885271,0.030721197399129346,0.08421013394087602,0.04085847340032195,0.03097435375358239,0.08570391090964961,0.7810700874478912,0.5532197918128637,0.4180648658292296,4.0
0.048405853818055386,0.03060825476743806,0.0777443578343309,0.05026564920565691,0.030869233291150888,0.07972082549217614,0.7809273280215169,0.6117522271593091,0.5605247732973136,4.0
0.054308833423200725,0.024984970986155854,0.09535888053626186,0.05652151445394129,0.02500581182510003,0.09702328627307574,0.8689881785757291,0.8114935053504916,0.569367113358648,4.0
0.04954288059732561,0.026809228873089716,0.09680897641555174,0.0527319974998156,0.027311331044885367,0.09850655772933363,0.9770712680360922,0.8422516587661605,0.46490571790567586,4.0
0.052513277999649395,0.02090579773077553,0.09115296159156262,0.05498515027839023,0.0214867928755935,0.09237149289944528,0.7490109458975112,0.6058579610222167,0.5685975836168204,4.0
0.04792627090529078,0.02581370842660431,0.09167679823711303,0.04896423175807681,0.02568510652583977,0.09319763509502878,0.9731187995511176,0.6920299794042748,0.5395579797474609,4.0
0.04732675011862491,0.028458373828225775,0.09216756535700335,0.049439105554845555,0.027474869185646084,0.09605847506877041,1.047330233832764,0.9069370603707139,0.5378615832680709,4.0
0.06251207531490469,0.031214644612673922,0.06779799846415575,0.06719894694218854,0.03053366177811721,0.06951075248927989,0.5925050799906584,0.9473362151530608,0.6656128286507389,4.0
0.041622180690646715,0.029965885099330403,0.09200716989943007,0.04343154688872137,0.02954372843626182,0.0944040476257939,0.778880709390636,0.7679767848237259,0.49344860371357957,4.0
0.03640328231782287,0.033885341720353984,0.09498785010079039,0.04095009025664166,0.03218926916076189,0.0978019066054415,0.8465283274662834,0.6045188015297954,0.5732867422680723,4.0
0.03697959544510353,0.024914608211793032,0.0792862901816872,0.03915199069350674,0.024091974481568985,0.08140123581848488,0.7655992567802372,0.6359448724797445,0.4758250510843602,4.0
0.04612965768706059,0.02380628154764023,0.08006410658987147,0.04740112567881319,0.025091766414073628,0.08172037759955227,0.835242440154549,0.5959921389658874,0.4968965772785961,4.0
0.03812739115429146,0.029661274935820492,0.07660532414936558,0.04071052287289628,0.03157600356805744,0.07769990469880941,0.682890482829909,0.7093927395812643,0.43213804714743786,4.0
0.04725459497143383,0.03382976038566709,0.05765770418827901,0.049384316727751267,0.03322385740221419,0.0599841443728289,0.5472510642225802,0.6522066198020984,0.4845432667363329,4.0
0.04524127943518305,0.03496367363082665,0.06583562681123299,0.047710260559625774,0.03404018402202119,0.06652496752633698,0.5712622981617852,0.959267132791606,0.4222806092261237,4.0
0.045702900773967124,0.03120931451991946,0.10147178792544813,0.047078525949819226,0.03145694920168594,0.1060340723374093,1.0611750705415173,0.7770802975806993,0.49554841523931314,4.0
0.05618817917940709,0.03494470598340214,0.11255754291238473,0.058437408520806054,0.0351594514589987,0.11682916768826034,0.8504148178618586,0.7985197759938929,0.5375757185146389,4.0
0.04465826193616077,0.04925188577662513,0.097771076143216,0.05010317244455598,0.04494605891006694,0.10313544245718735,1.0382521295746152,0.8301361752461406,0.6085490664862253,4.0
0.055680125969766715,0.034311854468198816,0.1180335899941361,0.05605768530957231,0.03560263197496683,0.12129616929147057,1.1084176682061175,0.7105868417645944,0.5704056717556103,4.0
0.04643553422173767,0.027126166825724888,0.06792753709749084,0.04835876684486967,0.027830943422341416,0.06884164198884474,0.5778381568105705,0.6948753803271528,0.4669732075117637,4.0
0.04838690242387411,0.027426778974882035,0.08005897241269629,0.05044298996397544,0.030649453808944883,0.08239599045698384,0.7441679956402254,0.7004721578668458,0.48437172408958423,4.0
0.042875621741410415,0.023092267552198877,0.07596542730049903,0.04436732902630034,0.024260561437387106,0.07820548793362717,0.6795172542840398,0.5758646281970864,0.5056292100602096,4.0
0.042915462691451,0.02108115599981908,0.06294145239483025,0.04384272861377084,0.0213073610326202,0.0639634157379852,0.6006856441653924,0.6756552049054417,0.43564640101709534,4.0
0.0497349828841869,0.03938097416123475,0.06350353177935691,0.05024020402067775,0.03974392897885681,0.06479647797756705,0.6088083698992908,0.629644417313788,0.5734095054985043,4.0
0.05910269864080769,0.03257636636924649,0.07483424093169046,0.06215590843272053,0.03338957282104098,0.07618881353873024,0.7276335725727294,0.5594090763462823,0.625035806720136,4.0
0.04295080673640558,0.030126138019292484,0.06366121654943994,0.04444982044454716,0.028741015720271258,0.06602087649090592,0.6689110723906383,0.6002493934189999,0.43826850733134937,4.0
0.04073197368774903,0.03765240665934503,0.07798440971250035,0.04222178901222565,0.0365909445616849,0.08067716332154365,0.6443769212359565,0.630791308390677,0.45777016411651644,4.0
0.03777567968718914,0.027626719980083057,0.06688253012363041,0.03830677448626302,0.02716551505501313,0.0692096572433958,0.5645396691805925,0.6349978734028774,0.38041407047705234,4.0
0.049147284267544604,0.030751965486206824,0.09673825328187842,0.05151181808591726,0.030628384492834594,0.09854611002421618,0.8535822591684548,0.7179578428200207,0.4771652824680899,4.0
0.03807251945395297,0.036954267734807617,0.09311057870983964,0.04236950554987073,0.03850930777711576,0.11099634830689743,1.1081336830205155,0.9010276974944234,0.5128279708397244,4.0
0.0478940172829582,0.03115535721919569,0.08953565234741562,0.05116771173897484,0.030730492848458402,0.09265957752676648,0.8057049591678912,0.7553882652708793,0.5525835683528239,4.0
0.03679877681421392,0.028358015856245453,0.07126661345397206,0.03829724537677317,0.028267940762294566,0.07255980166468201,0.5757635179597498,0.6980351241540541,0.37222432947082923,4.0
0.04645177702187725,0.037035967703624946,0.07636191995787919,0.04781480327523946,0.03469804856891386,0.07864206980741745,0.7120888077473995,0.708299677336811,0.48564438205682553,4.0
0.06063104901872426,0.03076310581101487,0.09124985614124673,0.062489905861366365,0.033396440067761976,0.09540181948553585,0.8152110225931246,0.943615131060423,0.6097959635416207,4.0
0.04656257987747072,0.03648307398518895,0.07331431825827872,0.048739767825005456,0.036061790721896095,0.0774201298858931,0.6871685598399356,0.714504168637327,0.44859295901291385,4.0
0.047666368793062436,0.03147142008002824,0.06591686570132393,0.04895493376074137,0.031571159302742506,0.06830885029702541,0.7857190389328735,0.7866897123898254,0.5992435377454628,4.0
0.04856940080841182,0.03081390123832422,0.1136006643658231,0.050411819505073,0.033506957387863634,0.11539617385066417,1.0461244894624362,1.144008107741493,0.828856953258787,4.0
0.048381020280782075,0.031136502894962243,0.09682612413201015,0.05846036321924782,0.03003400204009734,0.09910801419887962,1.0034722917336787,0.791575631413893,0.7697877607064618,4.0
0.0516006105883515,0.02964304166043273,0.09194626803909065,0.05646910682178098,0.02906839350904694,0.09409755867585863,0.8073910248862128,0.8978734233375784,0.5168716153905495,4.0
0.047103489165123746,0.03144619175833956,0.07704753342511138,0.04825601185217879,0.030183283222296565,0.07899844188636303,0.7372574183286805,0.8494127755693857,0.486541730097615,4.0
0.042277181898321504,0.03078331306054394,0.06261260849015643,0.04305609645484278,0.031022046002887247,0.06406589166474913,0.473686491764096,0.6948624672413205,0.4676692004218706,4.0
0.04804894144052206,0.028556143600758,0.06683193620121576,0.053226754103754347,0.028812248087442472,0.06811792671891881,0.5656146900272275,0.6794826542155724,0.4260938291916844,4.0
0.05825084937038939,0.03689828014394086,0.07106178178634179,0.06001140865417631,0.03758045505486381,0.07186282485064703,0.6435391467193152,0.6411080668758063,0.6220727247705452,4.0
0.05554376897438305,0.031081355899487052,0.0933549424643445,0.05580546320934044,0.031868871850636686,0.0954946313273774,0.8060362641338376,0.7418399628122767,0.5569717995633282,4.0
0.04726503752704719,0.029216680359971724,0.08116255918713679,0.04869827352737581,0.029724557114594048,0.08308442309801914,0.6645694851863005,0.58525651314808,0.4541152822312516,4.0
0.0500333325017856,0.025652767570097112,0.06938417405235352,0.05050612046887825,0.026051266883834214,0.07072576304946267,0.5646367635089896,0.6569550583409931,0.5240427065108265,4.0
0.039304884297228324,0.023182132574085836,0.07906715140991469,0.04029299764410475,0.02464416659733513,0.08061141631882726,0.6609631775350622,0.5474710749609861,0.34996714774422566,4.0
0.04562089232118773,0.023983195742832912,0.08240558156710866,0.046231325111482174,0.024075062526043675,0.08395060504438817,0.6820839956300693,0.5106152967330113,0.4957395434065747,4.0
0.04608051811997348,0.027213474944587736,0.06933787054829148,0.048382194398528755,0.027811914063088493,0.070673690871142,0.6494007539568195,0.4548138263435444,0.5130506725314516,4.0
0.041854160724345384,0.028856510279430213,0.060486602671590145,0.04423182948385117,0.027664039581523317,0.062353436750394856,0.613893370698033,0.5467433494924644,0.4466788433270042,4.0
0.04951281244066968,0.038614964922769064,0.08696965563774246,0.052329804046091194,0.03816416813019269,0.08830996195055582,0.8502016488386447,0.6768490535859403,0.5318310305341445,4.0
0.03675010432941236,0.023483429100721,0.06775747182071098,0.036787661137827346,0.02557196586216063,0.0704945227604375,0.7146321405328434,0.6422515077876808,0.3974154891116696,4.0
0.04478105141414785,0.023217276551098183,0.06917990561811384,0.05097580785557961,0.029193174968536708,0.0726711975680276,0.665848332233553,0.6167797288464402,0.855415529142006,4.0
0.04439329472616514,0.0315800965140416,0.09205624106604092,0.0471974830638653,0.031007494320035852,0.09461551067857114,0.8531067058315409,0.6054068520266463,0.45455703810829357,4.0
0.04738205592204936,0.028530814638590096,0.07161698333364226,0.04899774942250877,0.028810347115829183,0.0739016195313359,0.6679830760484585,0.574287262505794,0.5751676222409787,4.0
0.04860139361560258,0.04331383207587747,0.0814932281399312,0.05425366410224223,0.04283227858341463,0.08519854479521302,0.7789701843550387,0.5500866612027787,0.6964447546033036,4.0
0.05392869315699927,0.03134613302455126,0.0693945304822412,0.06257147329422648,0.03184196815570415,0.0708475020810142,0.628052797692019,0.8238343395522194,0.588183921867778,4.0
0.0631234112082724,0.03266772957483938,0.08737401323135008,0.08337874698096852,0.03272274443787946,0.08966256724794334,0.854514817796746,0.6927559166444986,0.6503418286509708,4.0
0.05245948108869923,0.02913648613977153,0.078412610020789,0.05437630766857879,0.030541495642147927,0.0796317467971729,0.6979225136750085,0.5266888442695633,0.5878712605137496,4.0
0.046924033534015655,0.0282911640794658,0.06960297410707608,0.04749121841196385,0.029052502892822695,0.07200482168849015,0.6527055979691021,0.6067752572831489,0.4644953739540631,4.0
0.041634388662652844,0.0296673313376929,0.05699804939331167,0.04336299240352334,0.029477250245722515,0.058073103348841616,0.51991540778978,0.5197848843544435,0.4175586334416336,4.0
0.04486032083335177,0.032307821335143476,0.09645292545588761,0.04582563356694795,0.032294436540435505,0.09787890263030896,0.9401375472124176,0.8137582987284164,0.4665050606551833,4.0
0.03468457072149703,0.026537646890104377,0.07720471834951043,0.03704667665118531,0.025472875649540188,0.07876727730796097,0.6076681678740643,0.5579083354860281,0.3691497932065064,4.0
0.03515470021318884,0.03470024775353854,0.06371103048038267,0.038366985581356754,0.032727486703562444,0.06630534162401477,0.6340634427964977,0.4944233838922363,0.501480029020681,4.0
0.03710954842980485,0.033529294751177524,0.0632939513319175,0.039023701416242194,0.032769045664832,0.06440789915674021,0.5890276781785364,0.6791757108254651,0.3764023876542728,4.0
0.0505503109166488,0.028324646276225916,0.05404213473029784,0.053255320854714065,0.028368704936064675,0.05488367179486866,0.4206133507851719,0.6649641611204897,0.5273958195695909,4.0
0.03602222072053382,0.021413463521443805,0.04823914160319114,0.03698525692953117,0.021022684147263878,0.04960170394063248,0.4704290215904029,0.6275149807777746,0.3380170228787164,4.0
0.04285052539431547,0.02319568645677032,0.06825266045161066,0.045099545359892405,0.023448816511900387,0.06929954984827422,0.633288751798106,0.7028990817345028,0.3971901651220949,4.0
0.05031752019272244,0.02694049408551478,0.06175200652005654,0.05045290746554443,0.02718086153593958,0.06271657987059455,0.47317996239625276,0.6722694887344669,0.44902262988045427,4.0
0.034191494055769635,0.03420693157894955,0.07843892505466842,0.03478548881131744,0.03329696246685777,0.08032604843346157,0.5617919116614006,0.6179767606188417,0.3977827322096357,4.0
0.044331693141985526,0.038350841326489325,0.08135581215164202,0.04646612356538149,0.038650045441315735,0.08310892262382903,0.8369275404183412,0.8187512549857159,0.4712133478322876,4.0
0.03598356173773486,0.02882880810070805,0.05456762460370889,0.03795928739631476,0.030718206415250363,0.05514300404677169,0.5050803456176501,0.5940896656406444,0.3942136211529999,4.0
0.052453612136083114,0.027659717078878137,0.07587270161335488,0.05411917917400016,0.02780437073056353,0.07727798196707295,0.6920106848100857,0.5588081921753362,0.5711528259819821,4.0
0.05139093044451466,0.027749138934923777,0.08060286752237812,0.05295436075138264,0.02629871423429985,0.08477290501800873,0.768519958051134,0.702244176232187,0.5528623100214809,4.0
0.039958068129624595,0.03022577196899284,0.0795131656388653,0.040693310786019274,0.029569294515894292,0.08169819820547936,0.6021337536759126,0.5593295129894504,0.37336130026542524,4.0
0.044231383413959026,0.02720151621437528,0.06025875310377291,0.0463398152728017,0.026208518198983115,0.06226353810628622,0.6959046801179836,0.7863319357528057,0.41054567561063143,4.0
0.04366824708680684,0.03345868110477518,0.09886585051573549,0.044856874126701245,0.03167906950901922,0.10089043714996122,0.82894020008094,0.6909549819485858,0.5047627781266262,4.0
0.03872299797055408,0.032628026097417745,0.05706550845147351,0.04118548997745712,0.037549515353416406,0.058539200090039344,0.4555702352385666,0.7185139990504438,0.5440566003672895,4.0
0.04041253972311636,0.03302264691643539,0.06571129635186009,0.04198381664581182,0.03269703206505547,0.07221356812672515,0.6177212803881794,0.5993855249825406,0.43015933098866493,4.0
0.03807283497919545,0.044795802293145524,0.08149871039814185,0.04058036598220687,0.04297865030268397,0.08371690775967743,0.7496639030369379,0.5704179065475888,0.45833797475195087,4.0
0.04628570964060151,0.027094583906103267,0.11220490953103224,0.04855126857923808,0.02673660689000442,0.11484491576122156,0.8964519326193365,0.7887906093212377,0.4914980668212814,4.0
0.040177481619952,0.029350349615616642,0.09965587523052147,0.041769736582908897,0.02973696050870734,0.1019039625890407,1.026174683491623,0.5597678193100813,0.5275367349274535,4.0
0.050656990251603695,0.02290051683011538,0.0829166485780092,0.05402560314390087,0.024159171608931537,0.08329210603890054,0.6321434031227535,0.8494266109722375,0.3965299779041688,4.0
0.03720295287175141,0.026865127565809183,0.08046716709148108,0.053205370408772226,0.025077068473816945,0.08299494700719645,0.8828951330042555,0.709917520049193,0.4186350627571644,4.0
0.05430412075620407,0.03578380430585222,0.05132316388325635,0.05640113877230339,0.03445181431140553,0.054896218359149714,0.7005026633313779,0.7900059342812973,0.47874350164882024,4.0
0.05512290076637889,0.026549520844699755,0.10879935813697879,0.05677245787592619,0.02643269595686476,0.11039161021898454,0.8638932214416114,0.9677461522721893,0.5344910950205413,4.0
0.05079476073473235,0.03032527415956992,0.0798447312245171,0.054926321800897154,0.030214107759533513,0.08175597511051676,0.7223490149624712,0.5451892307803877,0.6600496774184982,4.0
0.04677183726266996,0.027384474773176515,0.09821271673829858,0.04868665902116905,0.027794074771655533,0.09991679675403319,0.9138588254133381,0.7316341978488744,0.4543789401387213,4.0
0.04056404987338384,0.02467611807555201,0.09554458268436969,0.04161632193318553,0.024366358672746353,0.09816820431346904,0.9108019168701533,0.8182919499378735,0.4470374007778693,4.0
0.045774796457162314,0.029177022060414146,0.08278364654650741,0.04815490534380375,0.029380545878181993,0.08406973117238624,0.6565861595831255,0.7216025673902534,0.5397961989661709,4.0
0.03870975970121428,0.02752909785956291,0.08285867345407226,0.040630529854027285,0.027819624632821862,0.08460547362511689,0.7589368725771656,0.6629852713513673,0.4329257916007086,4.0
0.043100417618265045,0.025748469370255597,0.07393927273097001,0.044983101934216264,0.025796288534162125,0.07472483060825678,0.5524546991370132,0.724672052903912,0.42860255211365106,4.0
0.04973693439248965,0.03144755250040772,0.09003625204918234,0.051155211810429,0.030876729085059257,0.09267987328832775,0.8386284710476667,0.6866245379900127,0.4897220966004724,4.0
0.03219933120132193,0.02747928598683315,0.07530460691697934,0.035291406563786654,0.026969287837916692,0.07726896454266137,0.6983788027394905,0.49704861702863146,0.3844154384124212,4.0
0.03984107035803572,0.03272741685809861,0.060825413642255625,0.041594088951194035,0.03246764146662192,0.06250964841265678,0.4766917934316092,0.6105424571279537,0.4121165343154888,4.0
0.03640758704565406,0.026283655386287023,0.06574280679390396,0.03830882407201637,0.026303763236281724,0.06793990714509573,0.6078067639107929,0.5886389428228384,0.4705941778345852,4.0
0.03774889082037252,0.020841652366524407,0.0853051900447211,0.03874194253705448,0.02153028157808715,0.08703857441085282,0.7448716157340577,0.6385928521392749,0.40900383473089785,4.0
0.04248861047755803,0.024231725410150666,0.09307302051522198,0.04506073841525134,0.02511536258002028,0.0952615523405034,0.8324783634081966,0.7207566469383153,0.4315887891947817,4.0
0.056159887300137296,0.029138256655759656,0.08054629944872685,0.060085181028843665,0.027858153303583235,0.08382899252703976,0.8543386344995403,0.6701128659993051,0.6013493800089432,4.0
0.04838980912883218,0.027782328711826045,0.06612686241247413,0.050248418426360776,0.0279656270383194,0.0674110058717639,0.6156321333064761,0.6671884023595475,0.41873981425315515,4.0
0.04156454682054437,0.03371263637091934,0.06865786421486694,0.04151921342456533,0.03373105058883523,0.06986175908573986,0.5570079427351962,0.6798568534359644,0.4654382048710068,4.0
0.048488019413428785,0.028528847127404503,0.05939366156636112,0.04938501015372062,0.029574554813687252,0.061268462594016776,0.6540852016435679,0.6974607716385998,0.4620362339699646,4.0
0.04837358754475786,0.036666346882142854,0.1018453989974638,0.049179304158939306,0.03544739054657233,0.10432611706272092,0.9030519991272251,0.6559941125823548,0.5386342360682035,4.0
0.04728340101383442,0.03279101677773286,0.09770976475016682,0.047979825564085074,0.03339516923921641,0.10082961597983929,0.7753008710179344,0.7065940052566759,0.49139183266623154,4.0
0.053404477007574044,0.031373494515392154,0.0732731946431844,0.05493226320282261,0.03195096865609291,0.07468673132180506,0.7782991041368036,0.8254347284464781,0.5422392562144598,4.0
0.05266766569561512,0.04264769167684719,0.0960103881886558,0.0548338801366396,0.042636370179777235,0.09954330352608351,0.8658900092964839,0.6659031177443532,0.5847890303837531,4.0
0.042539859901079266,0.03573769489614569,0.05780763924934016,0.04461910005897813,0.03446240730571167,0.05990831206979197,0.4677077899556589,0.661894481373819,0.40149513158317596,4.0
0.047556202287538055,0.03650243473642228,0.0834251105269805,0.051123161130892596,0.03543606153469701,0.0858193245367277,0.7877640932049599,0.6293155307324205,0.5015633314923187,4.0
0.039446219017522044,0.03492911313680461,0.08714627981166162,0.04152729812151058,0.03411853934308834,0.08882540394600624,0.656275750829293,0.6666523183668086,0.42553164044073893,4.0
0.04065010893209135,0.03006345463363474,0.06266639361000538,0.04158791810951642,0.030312191047657693,0.06400815725539703,0.48215547306949147,0.5475398535511087,0.48200585004668406,4.0
0.04267472019618906,0.025943394171237314,0.07124165616379569,0.04347651012966232,0.026774260071135234,0.0739194759230638,0.6860340646716695,0.5645098249164993,0.47182895266070374,4.0
0.05090328822740707,0.028172882748609202,0.08964783957598212,0.05151581719195192,0.03007077561757201,0.09304557800971618,0.8422627323543737,0.6644051909092272,0.5215072490529382,4.0
0.050960439688026465,0.029973145455053578,0.09328357551199543,0.052689483796754005,0.02936814596096763,0.09555124644776357,0.9136517870803054,0.7261629563372003,0.5096840981097704,4.0
0.04694573290639246,0.027639561325914472,0.08046217726764472,0.049112134430327685,0.027659233076666435,0.08170750921346534,0.6749321060181085,0.7392382677906579,0.41559428814430394,4.0
0.03884521535542478,0.02585785556033505,0.10635089337428878,0.04205801520212154,0.024146862719226177,0.10986127809374098,0.9412274395536072,0.4752436702336595,0.4343507427683595,4.0
0.04412561874578431,0.020431872328703266,0.06738623190455559,0.046777037060273696,0.02090715848955278,0.0683681317953343,0.6008630958057097,0.5349744170818048,0.46174663059398746,4.0
0.044679414932631674,0.031047750317202506,0.06896094113106283,0.04616217199850714,0.030641109960670796,0.07039562534920761,0.6104898731688894,0.6968755882945199,0.46022463378765816,4.0
0.04686982581723921,0.020764868068247726,0.08014135244668447,0.04725005153818887,0.02041837222131262,0.08167294184625762,0.7337950383370699,0.72012582703399,0.423754555069155,4.0
0.05450883326073846,0.028522574006479003,0.08846220002613817,0.05531422722673985,0.02876869848038799,0.09025943464658961,0.655991587700522,0.8659059395514299,0.4979161178488052,4.0
0.045558668964815106,0.0299680123308149,0.08420819866467616,0.04679925793349658,0.029568246726323855,0.08554412032177383,0.7092414951323744,0.5877000964045608,0.48482360918229506,4.0
0.04032556054201126,0.019312520304476253,0.07913307579038327,0.041506488500531125,0.018465160117142,0.08124820282797023,0.6884420563400361,0.5429826363772806,0.38816649818392224,4.0
0.06535605246694469,0.03403536642463341,0.09616703654912652,0.06874637788105961,0.033423798246417384,0.09912048148697408,0.9244324100103426,0.6893478234618341,0.7755527082166164,4.0
0.04853025110729387,0.02775355795541199,0.08751317253611142,0.05149929310269737,0.025780297016905585,0.09050895375850408,0.774938256210012,0.7181957150151916,0.5734589636049957,4.0
0.042014626937202246,0.027239209253376542,0.0694051957006865,0.045454105871998655,0.026243688971629285,0.07137538787157238,0.580272817796163,0.5663519296697055,0.4217949353204269,4.0
0.038463414444279205,0.030246384250389315,0.0672493958918574,0.042842459109391676,0.029565835822606763,0.06924697309711772,0.5650213576780339,0.6264350702346996,0.3946859238133692,4.0
0.03697512017493351,0.03356685128904362,0.06531038404117731,0.03800865363827442,0.03224246182289137,0.06781022727855285,0.634833656792747,0.46500178096327166,0.4222417055308857,4.0
0.04493454783292427,0.022210704320280487,0.08937742462452992,0.04777217869970841,0.021758017595831337,0.09075401582122786,0.7636837921064596,0.6737414524520039,0.5349772679229862,4.0
0.0328980178121089,0.024943941701832686,0.08181248251047551,0.03442687337237371,0.024102142699147098,0.08559162975516774,0.8133086365522852,0.5576918336413472,0.4381743289431868,4.0
0.03856982277167733,0.028508370032894127,0.0749520812898195,0.038382043679130506,0.028132715419797616,0.07660360927289223,0.7421021181539293,0.5938430819301894,0.41000792970285166,4.0
0.047058906522773246,0.026445827655612156,0.09348032641662567,0.05079336965689695,0.026233764283648594,0.09523231814961634,0.8017846532389107,0.742242179304568,0.5651479458025592,4.0
0.04882678444180114,0.02533169999467531,0.11416622779619515,0.05129691928406684,0.025972252965478074,0.11628557222257362,1.103757545610662,0.8302369301956195,0.4804543827477483,4.0
0.04513515863554932,0.03082327776136717,0.07078430436715304,0.04582408378750851,0.03088457450685321,0.07218848430659498,0.69126517591432,0.49545959461340855,0.48444062386000464,4.0
0.04739380951998052,0.03546469603113055,0.06766106874160785,0.049261524451510254,0.03420794432405926,0.07018878873597731,0.6688109486015258,0.736133215500264,0.4391008340960708,4.0
0.046207124269510944,0.029264565794714155,0.07765350843958493,0.04856142481240919,0.028767076784184366,0.07839725068826568,0.6882006638012987,0.638190059974699,0.4022013135639878,4.0
0.045625098598080976,0.03544588495573803,0.05855243723726103,0.0485765673872188,0.03433895233043978,0.06009781105821991,0.5437157051392989,0.705495903681889,0.47470144208000326,4.0
0.04431682225320849,0.036927347134717486,0.07138609436757623,0.04631963424666476,0.03670033320060153,0.07258212136092154,0.6794884316873466,0.5294711482036951,0.5322738067402086,4.0
0.03535723412073786,0.025178425256688463,0.08410551628143324,0.036842119452967274,0.02800892730024026,0.0889711267695956,0.9358922362707055,0.6673514540054448,0.4788952083931818,4.0
0.04459431319945137,0.03200691781017868,0.07124391314748683,0.04598927672366698,0.03157022135511056,0.07274389388404068,0.6414542244920429,0.6300859968328293,0.49491362340149775,4.0
0.04017540318593169,0.02688685629209163,0.0923469381162549,0.041166265835762494,0.025720528057277196,0.09450244445274046,0.776629467422779,0.5537977165164765,0.4653729588146707,4.0
0.04934436231374434,0.029550210407483367,0.08042878086330862,0.05357911385026318,0.029509770962617293,0.08195146314191527,0.7151106495922973,0.72193331401778,0.5723016855801624,4.0
0.04060473354330726,0.025284365210440432,0.0706836040416946,0.04192675539079533,0.024265785106254878,0.07199732438950611,0.6415614767129837,0.6275711752962224,0.3855712033772873,4.0
0.046844344135934995,0.025109147755345878,0.0807171341259613,0.04957426359564566,0.025243056848834922,0.08190342402235695,0.747736888308503,0.6922045959883676,0.4632986463377286,4.0
0.044684115524903624,0.028175610509493194,0.10521147298568279,0.04777892979859469,0.02654412482184555,0.10802431996238417,1.084762492795445,0.8013696501463501,0.459184226176843,4.0
0.04224687872458069,0.03259128857019458,0.08352331729472084,0.0455665431812025,0.030824983587079476,0.08704727336917653,0.7797320350550208,0.6696445651445182,0.4535187833003435,4.0
0.04892070717883777,0.03193436175445778,0.0758887890274266,0.05217634921727218,0.032385611838950286,0.08002049548273735,0.7753633806665081,1.12102012542144,0.4963783443355805,4.0
0.04816246243640569,0.02877901430180475,0.07949530660465254,0.0511826096467236,0.028524459242674927,0.08078701798642177,0.6262484235464131,0.4496388855990744,0.5080013084299925,4.0
0.040969950269009944,0.023221024548635696,0.07143892976466235,0.04336995662535472,0.02319447593751982,0.07272733475536731,0.7194725506397199,0.6723620866539773,0.471919005941634,4.0
0.04327114639465673,0.031264601995581016,0.07947307552216036,0.04506260089493216,0.03092912681461014,0.08163458415861509,0.6914444258771125,0.6444785857605968,0.47738542589924005,4.0
0.043858526259401724,0.02412181394884076,0.06174455026746304,0.04688858739909589,0.0241506606517691,0.0640882355725312,0.5454796425270524,0.6889956163403138,0.48837947369567275,4.0
0.04463791817874028,0.03501149349381618,0.08995583969914159,0.048522049742903854,0.03276182330257464,0.09232016234991566,0.8420135297064621,0.6035640724862729,0.5601168045308631,4.0
0.04865522908811171,0.026804112494191748,0.0752784142669052,0.05009705312519932,0.026400646152319716,0.07704866056076204,0.6660481485746939,0.7454469360888928,0.47343458780431047,4.0
0.06538475987407993,0.03592397035518952,0.1113143903840156,0.06573954152365792,0.03602612420456772,0.11288173116086028,0.9649023991439151,0.8669282455974527,0.6875455084115624,4.0
0.04419735712302468,0.03309458951332606,0.07102123551454233,0.04627372757259997,0.03252170387784108,0.07384943964281543,0.7027123659473631,0.5771710616776281,0.5550184774705945,4.0
0.052281017718935986,0.03249219348793893,0.08720074868903431,0.054719544080360234,0.03313080503869221,0.08859702881698168,0.8435899795758459,0.6991357133223214,0.49993272444888986,4.0
0.04488927465179634,0.043659582390805085,0.09690898604316521,0.04696212347134894,0.043417822660623176,0.09856017430346165,0.9035914356476422,0.5718301762632614,0.5349862172405293,4.0
0.04599782554888025,0.02663971797721447,0.08708425890979966,0.047586254105303205,0.027933601914462477,0.08873707774121406,0.7374777963627818,0.6720773724048714,0.4702226947769294,4.0
0.04053538063366369,0.026374826847798204,0.09551078499892653,0.04235972052145601,0.025120275102117295,0.0978081302400389,0.8485256947904083,0.5831733708238734,0.42645459607262254,4.0
0.03628105124294121,0.024715693518945283,0.07219938104990951,0.03802695873211588,0.024743730230216178,0.07345329579127179,0.6312194554029706,0.5066249336516293,0.48722019643019754,4.0
0.04182976261331261,0.02519542896551398,0.08880818990221245,0.04331367525949349,0.025168859311041503,0.09033355009812745,0.791888028794865,0.49056446149808286,0.4639470592339035,4.0
0.03763758583510307,0.024201092773844458,0.07688060424787847,0.04033201553239712,0.023844356545817864,0.07857351904448834,0.610761768246038,0.6704532049742932,0.338266944469666,4.0
0.04536311784815143,0.024037327287980453,0.06638805110615169,0.04759802626064918,0.02553272002698975,0.07081390836923973,0.5891973818126485,0.5844303133424384,0.5515302589328934,4.0
0.055950663488470144,0.03146951520172088,0.07977281923206718,0.058942039324109734,0.030249697247882016,0.08192632448526568,0.7457771060895858,0.7970253660526957,0.6665363100515914,4.0
0.050365857854624406,0.027876217450537127,0.07727616639203695,0.052865821698144556,0.027638883422642917,0.07955218341902207,0.647822033562044,0.8077611373611274,0.5128229222260323,4.0
0.04406306638817393,0.030535619069326347,0.08055582995550842,0.04880478920655077,0.029701141562053408,0.0825416576091372,0.6330896983156119,0.6841922678442597,0.5282981495086599,4.0
0.04610930249496321,0.03824077022594884,0.08538772658921559,0.04953779328033661,0.03800680763570502,0.08738857370494253,0.7671457955274305,0.6531551147645103,0.4564140381809371,4.0
0.051710059551684014,0.03686795447743529,0.09673795923234747,0.05571957735292339,0.037234487175994854,0.10059749831522431,1.0782551865205872,0.5744547604941831,0.7205015693993077,4.0
0.04456074777768554,0.031681433578169105,0.057952761552753515,0.046411417288768096,0.03112600490038651,0.06004998084009759,0.5309559386904616,0.5582119496991451,0.5281553108306235,4.0
0.05398240923244881,0.03252578390321869,0.09722601936040444,0.05593861756093348,0.03290978607138134,0.09952155991327367,1.0408066167326315,0.863635257981687,0.48692475059220597,4.0
0.048995484417901226,0.019411358883640758,0.09256487573968901,0.05097160920166215,0.018949045413757342,0.0941836472744098,0.7403777209313853,0.8370229196669257,0.4464130075311262,4.0
0.039558671967107883,0.028136009675782333,0.0953245151990485,0.04219709369136987,0.028571732035713122,0.09682094191512167,0.8798632140349305,0.5906206427373996,0.5516424422180656,4.0
0.06366840092355586,0.0359684696869013,0.11707261821182935,0.06297225421898449,0.036656095278254745,0.11892553778045532,0.991587461346463,0.9967007307216359,0.7594544108647969,4.0
0.9183567824241539,0.40114124174521953,0.8350274168965798,0.7197467018686605,0.49206760600906274,0.8701331750989864,16.243199768840885,18.913896582034504,17.571580284037637,1.0
0.4175469072930595,0.44777002936534077,0.8533136886973754,0.5220118657570243,0.7033915577641948,0.9146571180772216,16.966137490145975,12.354724813850916,16.085108188278333,1.0
0.5143491016332842,0.31107468799311755,0.7680057762088853,0.45084037610655897,0.36505254429265027,0.7618364224682116,12.484969087832539,10.752019958931479,17.52337100314126,1.0
0.5279521067930143,0.2807013075696292,0.7958873557468505,0.4812659968469916,0.33365209853768946,0.8097267700428613,12.30822394614528,10.502009334336298,18.272161358548992,1.0
0.5985566644767185,0.3849289350210126,0.8708972115915565,0.5403365711503734,0.40802037036246147,0.8692420213844774,9.763804490013628,9.687092220376654,12.538041145776306,1.0
0.4324925872692023,0.46307041225805123,0.4986954112739719,0.670542685566515,0.43696369138929364,0.5127274539280257,8.41292556762516,13.312793724317482,20.112141092608507,1.0
0.4453241535763037,0.5074644787129022,0.9149730807348423,0.5008738678282314,0.5303927962153123,0.9058396200571925,14.20406578041702,12.80097204151627,16.197966219368375,1.0
0.4848846813692515,0.4421327752218814,0.8512574638726488,0.5206148100323015,0.4575096209503856,0.8430751716159265,13.941735631020025,11.103471083887367,14.130875258103037,1.0
0.3903249580931944,0.39412156754689803,0.8960177529439254,0.35494505080939864,0.35568550332207666,0.9037204681095438,14.190235465075824,9.083846940966465,14.192882229596494,1.0
0.4704884228474451,0.4695924064199814,0.8900233188202383,0.47535576381808015,0.4375634120597375,0.9224701916267706,14.16086427609228,14.569107803932928,19.830746576944875,1.0
0.3039736267206029,0.8074793942573965,0.8599038402074859,0.36223879251193347,0.7969744169503779,0.9064198015329076,13.112507796365264,19.167380189017383,18.940128644915724,1.0
0.6750301708419522,0.8719402249228827,0.5633494741387908,0.5308368841657535,0.5877074791478785,0.514478399174713,10.011599730772673,19.440709261846635,31.935459358533468,1.0
0.6056929874685848,0.3123799095606202,0.605299407531321,0.578702647146874,0.365116904201365,0.6242896091248303,11.203764870349602,8.214374074237059,8.204868286857083,1.0
0.5126186511181454,0.4237030931163987,0.6760081219697857,0.5068431868809727,0.32483180681127716,0.6750866600977679,13.925354656313056,11.568966262306212,15.66164493539639,1.0
0.37095665401808653,0.37802369396656454,0.6599939595799504,0.38716390968009934,0.41712663958212415,0.6419612498587605,9.074292479326669,9.238780836075147,12.295310793633526,1.0
0.4294588694970665,0.3887524293696213,0.8660688797062392,0.4618689813953573,0.45629595704178255,0.8763172099108973,14.301819564774041,12.566359505888602,12.121920216508757,1.0
0.40861953082585345,0.4581539333976535,1.056315268079192,0.4705159507075139,0.5008087837797763,1.0658202256175477,14.641196483611706,11.861893495058553,10.421015578093149,1.0
0.6590212481051065,0.4780718342272283,0.9480939087113607,0.5923490897211404,0.5078622835015599,0.9470968624374321,10.284327656928808,9.925015526305485,9.083829456102626,1.0
0.4322395724930892,0.44446160169769294,0.6504235455758579,0.6361040860185775,0.4820126048530637,0.6539478087127629,10.00872824379552,9.119641186927474,8.293949259433685,1.0
0.4756863771359105,0.5271615525357355,0.8287618552417081,0.48094542922973554,0.5014942683038707,0.8277205064716979,7.500243743732875,9.859754159559587,10.988993208898952,1.0
0.3753406464348493,0.4375241529148721,0.7791077934074867,0.39814424683725486,0.46435956475922935,0.7754238363185467,9.025321052019292,7.539771706835835,10.686344986767674,1.0
0.3917231587901427,0.20669055886320642,0.6887574888969867,0.4263119476751196,0.2531221426870501,0.6902640132855199,8.89006748638015,7.825421425451116,8.684421919161242,1.0
0.6755176362386267,0.42387846490170267,0.9622076442055655,0.5526653806944174,0.4892391696095072,0.9076179236067784,12.639569598557367,9.944081215293165,10.961449765143218,1.0
0.4476005339918525,0.23261735464905856,0.7376271760104252,0.42363732976785107,0.2473854184068046,0.7456990260940358,9.579176410937615,7.891854091691849,6.765195236741319,1.0
0.2860604277935105,0.4730485743328878,0.7691844764387002,0.3330489015196512,0.4992740654235104,0.7725609692109354,12.001496582093246,8.957969750893291,10.976805687093124,1.0
0.3700713778879545,0.3682694494192388,0.8027422511375467,0.4020099495865309,0.3770408341615004,0.7865422464792946,9.4569295904094,8.8825929982424,6.145840060389943,1.0
0.4670869290806205,0.3662534911834389,0.6388690642515764,0.5164289130559779,0.45117424740244444,0.6370650167926771,12.605349931937614,16.707894184440626,14.880490356494473,1.0
0.3559026029949685,0.45845844186101903,0.8401094512304297,0.3956030293173544,0.5088550984941358,0.8766731700364345,10.778206982125994,14.22143767128549,10.989670757572215,1.0
0.4517683546758615,0.6219473902855844,0.602660786277364,0.47346093545490503,0.6800575082091906,0.5735087235082728,7.62352377568199,16.30623814301531,19.298603785523618,1.0
0.4470915067822453,0.4218884167525257,0.8711713092237993,0.5184140382026087,0.46336352246518886,0.8536315636853177,10.756391896772287,9.220519486550486,14.620570452880132,1.0
0.32709166466293965,0.3748769482806891,0.8290086212508722,0.37153002941925484,0.4491602286523751,0.8185713737827622,10.817802048177834,8.578147724811357,9.464312298523948,1.0
0.48616382345170733,0.4454553466351007,0.7901116665339617,0.5253067819055318,0.4641426901065842,0.7800151504933629,12.353429678773201,10.703091199080827,11.407342846464903,1.0
0.46388742656501486,0.4036786964859441,0.976819136120744,0.5099283844387577,0.4926850740775855,0.9728117598515497,12.63680537450343,11.726523026956585,9.659849272834897,1.0
0.41464535507081307,0.6640061313789387,0.9142694415033502,0.459080542248877,0.6859183676248186,0.9234249548480719,12.362528111482595,9.140797869981316,9.203984755968516,1.0
0.3427835170376963,0.46620621170867654,0.7184784734504532,0.35474425044410757,0.45594714659925506,0.6686952753116768,8.367493324119563,9.875714896672296,12.799704746401481,1.0
0.5701018589848296,0.46822111997576793,0.8612583371226191,0.6061438289090376,0.46089806662997,0.822196581701417,10.293105283779902,10.172639256592685,9.362767822783638,1.0
0.46908149462555415,0.5326744175435661,1.306879124719569,0.5217381805389256,0.43137134233941427,1.310678693263627,16.964706196152893,12.41290000409475,20.416352930581027,1.0
0.4477933681755363,0.36403984666807787,0.9103732866032967,0.5249095834155985,0.4492418626153632,0.9225439661639434,9.197663156112755,10.561313086030053,8.679719760168997,1.0
0.6183817141354497,0.492516181497617,1.1438694065613657,0.7313075073178054,0.536613121735893,1.132569465261333,10.879154133731362,14.183422650985362,16.044586629161618,1.0
0.5030873596092676,0.7777063457913678,0.9231804349346775,0.5498766716033621,0.8165203154079577,0.9166153591617313,11.853676927807344,15.584061687778528,11.607822319734106,1.0
